Number,letra,target,correctas,thisN,thisTrialN,thisRepN,respuesta.keys,respuesta.corr,respuesta.rt,respuesta.duration,trials.thisRepN,trials.thisTrialN,trials.thisN,trials.thisIndex,thisRow.t,notes,Ojos_abiertos.started,Abiertos.started,Ojos_abiertos.stopped,Ojos_cerrados.started,Cerrados.started,alert.started,Cerrados.stopped,alert.stopped,Ojos_cerrados.stopped,Test.started,prueba.started,respuesta.started,text.started,prueba.stopped,Test.stopped,trials.respuesta.keys,trials.respuesta.corr,trials.respuesta.rt,trials.respuesta.duration,text.stopped,participant,session,date,expName,psychopyVersion,frameRate,expStart,
,,,,,,,,,,,,,,,,,0.011651000007987022,0.01996599999256432,90.0088531000074,,,,,,,,,,,,,,,,,,000014,001,2024-10-09_16h30.20.320,cpt_test,2024.2.2,60.15533309338619,2024-10-09 16h35.22.242464 -0600,
,,,,,,,,,,,,,,,,,,,,90.02417009999044,90.03288429998793,150.00669806666363,150.03987449998385,150.3160649999918,150.1139899000118,,,,,,,,,,,,000014,001,2024-10-09_16h30.20.320,cpt_test,2024.2.2,60.15533309338619,2024-10-09 16h35.22.242464 -0600,
1,A,0,None,0,0,0,None,1,,,0,0,0,0,150.3160649999918,,,,,,,,,,,150.1853989000083,150.3160649999918,150.3160649999918,150.33567649999168,150.523185500002,152.1078564999916,None,1,,,,000014,001,2024-10-09_16h30.20.320,cpt_test,2024.2.2,60.15533309338619,2024-10-09 16h35.22.242464 -0600,
2,R,0,None,1,1,0,None,1,,,0,1,1,1,152.1283623999916,,,,,,,,,,,152.10802759998478,152.1283623999916,152.1283623999916,152.3051593999844,152.338168199989,154.10673559998395,None,1,,,,000014,001,2024-10-09_16h30.20.320,cpt_test,2024.2.2,60.15533309338619,2024-10-09 16h35.22.242464 -0600,
3,L,0,None,2,2,0,None,1,,,0,2,2,2,154.12687340000411,,,,,,,,,,,154.10693750000792,154.12687340000411,154.12687340000411,154.30352700001094,154.3364006000047,156.10473210000782,None,1,,,,000014,001,2024-10-09_16h30.20.320,cpt_test,2024.2.2,60.15533309338619,2024-10-09 16h35.22.242464 -0600,
4,X,1,x,3,3,0,x,1,0.5628366000019014,0.16391099998145364,0,3,3,3,156.12401339999633,,,,,,,,,,,156.10491500000353,156.12401339999633,156.12401339999633,156.30195990001084,156.33479230001103,158.10264749999624,x,1,0.5628366000019014,0.16391099998145364,,000014,001,2024-10-09_16h30.20.320,cpt_test,2024.2.2,60.15533309338619,2024-10-09 16h35.22.242464 -0600,
5,O,0,None,4,4,0,None,1,,,0,4,4,4,158.12951910000993,,,,,,,,,,,158.10280069999862,158.12951910000993,158.12951910000993,158.30012369999895,158.33316559999366,160.10129610000877,None,1,,,,000014,001,2024-10-09_16h30.20.320,cpt_test,2024.2.2,60.15533309338619,2024-10-09 16h35.22.242464 -0600,
6,G,0,None,5,5,0,None,1,,,0,5,5,5,160.11873349998496,,,,,,,,,,,160.1014748000016,160.11873349998496,160.11873349998496,160.31547939998563,160.3313191999914,162.1169099000108,None,1,,,,000014,001,2024-10-09_16h30.20.320,cpt_test,2024.2.2,60.15533309338619,2024-10-09 16h35.22.242464 -0600,
7,P,0,None,6,6,0,None,1,,,0,6,6,6,162.1350228000083,,,,,,,,,,,162.11713649999,162.1350228000083,162.1350228000083,162.31328790000407,162.3464299000043,164.11491889998433,None,1,,,,000014,001,2024-10-09_16h30.20.320,cpt_test,2024.2.2,60.15533309338619,2024-10-09 16h35.22.242464 -0600,
8,X,1,x,7,7,0,x,1,0.32432290000724606,0.17670899999211542,0,7,7,7,164.1284650999878,,,,,,,,,,,164.11510480000288,164.1284650999878,164.1284650999878,164.31164430000354,164.32816699999967,166.1133872999926,x,1,0.32432290000724606,0.17670899999211542,,000014,001,2024-10-09_16h30.20.320,cpt_test,2024.2.2,60.15533309338619,2024-10-09 16h35.22.242464 -0600,
9,X,1,x,8,8,0,x,1,0.370594500011066,0.16867089999141172,0,8,8,8,166.12714100000449,,,,,,,,,,,166.1135718000005,166.12714100000449,166.12714100000449,166.3102562999993,166.3264463999949,168.11140870000236,x,1,0.370594500011066,0.16867089999141172,,000014,001,2024-10-09_16h30.20.320,cpt_test,2024.2.2,60.15533309338619,2024-10-09 16h35.22.242464 -0600,
10,Z,0,None,9,9,0,None,1,,,0,9,9,9,168.1291240999999,,,,,,,,,,,168.1115967000078,168.1291240999999,168.1291240999999,168.30848979999428,168.3414832999988,170.10889899998438,None,1,,,,000014,001,2024-10-09_16h30.20.320,cpt_test,2024.2.2,60.15533309338619,2024-10-09 16h35.22.242464 -0600,
11,I,0,None,10,10,0,None,1,,,0,10,10,10,170.1253943000047,,,,,,,,,,,170.10905060000368,170.1253943000047,170.1253943000047,170.30660849998822,170.33990190000623,172.10782800000743,None,1,,,,000014,001,2024-10-09_16h30.20.320,cpt_test,2024.2.2,60.15533309338619,2024-10-09 16h35.22.242464 -0600,
12,D,0,None,11,11,0,None,1,,,0,11,11,11,172.1276080000098,,,,,,,,,,,172.10799359998782,172.1276080000098,172.1276080000098,172.305116500007,172.3383891999838,174.10642470000312,None,1,,,,000014,001,2024-10-09_16h30.20.320,cpt_test,2024.2.2,60.15533309338619,2024-10-09 16h35.22.242464 -0600,
13,X,1,x,12,12,0,x,1,0.4476616000174545,0.15280529999290593,0,12,12,12,174.12047520000488,,,,,,,,,,,174.10659799998393,174.12047520000488,174.12047520000488,174.30362029999378,174.31986319998396,176.10565589999896,x,1,0.4476616000174545,0.15280529999290593,,000014,001,2024-10-09_16h30.20.320,cpt_test,2024.2.2,60.15533309338619,2024-10-09 16h35.22.242464 -0600,
14,Y,0,None,13,13,0,None,1,,,0,13,13,13,176.1257626999868,,,,,,,,,,,176.10588119999738,176.1257626999868,176.1257626999868,176.30192060000263,176.33489259998896,178.1032608000096,None,1,,,,000014,001,2024-10-09_16h30.20.320,cpt_test,2024.2.2,60.15533309338619,2024-10-09 16h35.22.242464 -0600,
15,X,1,x,14,14,0,x,1,0.3237567000032868,0.13965129997814074,0,14,14,14,178.11723929998698,,,,,,,,,,,178.10344609999447,178.11723929998698,178.11723929998698,178.30014859998482,178.31670460000169,180.10171960000298,x,1,0.3237567000032868,0.13965129997814074,,000014,001,2024-10-09_16h30.20.320,cpt_test,2024.2.2,60.15533309338619,2024-10-09 16h35.22.242464 -0600,
16,X,1,x,15,15,0,x,1,0.35065489998669364,0.18623039999511093,0,15,15,15,180.11557629998424,,,,,,,,,,,180.10191739999573,180.11557629998424,180.11557629998424,180.31508359999862,180.31508359999862,182.1163186999911,x,1,0.35065489998669364,0.18623039999511093,,000014,001,2024-10-09_16h30.20.320,cpt_test,2024.2.2,60.15533309338619,2024-10-09 16h35.22.242464 -0600,
17,A,0,None,16,16,0,x,0,0.24878920000628568,0.2048470999870915,0,16,16,16,182.13038479999523,,,,,,,,,,,182.11649889999535,182.13038479999523,182.13038479999523,182.31368319998728,182.32999500000733,184.1145794999902,x,0,0.24878920000628568,0.2048470999870915,,000014,001,2024-10-09_16h30.20.320,cpt_test,2024.2.2,60.15533309338619,2024-10-09 16h35.22.242464 -0600,
18,J,0,None,17,17,0,None,1,,,0,17,17,17,184.1331719000009,,,,,,,,,,,184.11475330000394,184.1331719000009,184.1331719000009,184.3118123000022,184.3453346999886,186.11374559998512,None,1,,,,000014,001,2024-10-09_16h30.20.320,cpt_test,2024.2.2,60.15533309338619,2024-10-09 16h35.22.242464 -0600,
19,G,0,None,18,18,0,None,1,,,0,18,18,18,186.12739390000934,,,,,,,,,,,186.11395199998515,186.12739390000934,186.12739390000934,186.31026739999652,186.32682369998656,188.11234590000822,None,1,,,,000014,001,2024-10-09_16h30.20.320,cpt_test,2024.2.2,60.15533309338619,2024-10-09 16h35.22.242464 -0600,
20,X,1,x,19,19,0,x,1,0.3757355000125244,0.14950410000164993,0,19,19,19,188.12562850001268,,,,,,,,,,,188.1125558000058,188.12562850001268,188.12562850001268,188.30881819999195,188.32497439999133,190.11060439998982,x,1,0.3757355000125244,0.14950410000164993,,000014,001,2024-10-09_16h30.20.320,cpt_test,2024.2.2,60.15533309338619,2024-10-09 16h35.22.242464 -0600,
21,T,0,None,20,20,0,None,1,,,0,20,20,20,190.13164179999148,,,,,,,,,,,190.11081270000432,190.13164179999148,190.13164179999148,190.30692090000957,190.34014549999847,192.10866779999924,None,1,,,,000014,001,2024-10-09_16h30.20.320,cpt_test,2024.2.2,60.15533309338619,2024-10-09 16h35.22.242464 -0600,
22,S,0,None,21,21,0,None,1,,,0,21,21,21,192.1282671999943,,,,,,,,,,,192.10886929999106,192.1282671999943,192.1282671999943,192.30579670000589,192.33858720000717,194.1073589999869,None,1,,,,000014,001,2024-10-09_16h30.20.320,cpt_test,2024.2.2,60.15533309338619,2024-10-09 16h35.22.242464 -0600,
23,X,1,x,22,22,0,x,1,0.4538678999815602,0.15713900001719594,0,22,22,22,194.1204383999866,,,,,,,,,,,194.1075651999854,194.1204383999866,194.1204383999866,194.30393739999272,194.32012429999304,196.10474549999344,x,1,0.4538678999815602,0.15713900001719594,,000014,001,2024-10-09_16h30.20.320,cpt_test,2024.2.2,60.15533309338619,2024-10-09 16h35.22.242464 -0600,
24,S,0,None,23,23,0,None,1,,,0,23,23,23,196.11915009998484,,,,,,,,,,,196.10491930000717,196.11915009998484,196.11915009998484,196.30221170000732,196.31860090000555,198.1033846999926,None,1,,,,000014,001,2024-10-09_16h30.20.320,cpt_test,2024.2.2,60.15533309338619,2024-10-09 16h35.22.242464 -0600,
25,G,0,None,24,24,0,None,1,,,0,24,24,24,198.11733589999494,,,,,,,,,,,198.1035588000086,198.11733589999494,198.11733589999494,198.30034620000515,198.3168691000028,200.10171200000332,None,1,,,,000014,001,2024-10-09_16h30.20.320,cpt_test,2024.2.2,60.15533309338619,2024-10-09 16h35.22.242464 -0600,
26,O,0,None,25,25,0,None,1,,,0,25,25,25,200.11585149998427,,,,,,,,,,,200.10189319998608,200.11585149998427,200.11585149998427,200.31493550000596,200.31493550000596,202.11702330000116,None,1,,,,000014,001,2024-10-09_16h30.20.320,cpt_test,2024.2.2,60.15533309338619,2024-10-09 16h35.22.242464 -0600,
27,P,0,None,26,26,0,None,1,,,0,26,26,26,202.1307996000105,,,,,,,,,,,202.11721789999865,202.1307996000105,202.1307996000105,202.31395139999222,202.33022889998392,204.11475919999066,None,1,,,,000014,001,2024-10-09_16h30.20.320,cpt_test,2024.2.2,60.15533309338619,2024-10-09 16h35.22.242464 -0600,
28,Z,0,None,27,27,0,None,1,,,0,27,27,27,204.12896820000606,,,,,,,,,,,204.11493079998763,204.12896820000606,204.12896820000606,204.3120818999887,204.32864819999668,206.11304229998495,None,1,,,,000014,001,2024-10-09_16h30.20.320,cpt_test,2024.2.2,60.15533309338619,2024-10-09 16h35.22.242464 -0600,
29,X,1,x,28,28,0,x,1,0.4692448000132572,0.1777830999926664,0,28,28,28,206.12758110000868,,,,,,,,,,,206.11320069999783,206.12758110000868,206.12758110000868,206.3104081999918,206.32702110000537,208.11231789999874,x,1,0.4692448000132572,0.1777830999926664,,000014,001,2024-10-09_16h30.20.320,cpt_test,2024.2.2,60.15533309338619,2024-10-09 16h35.22.242464 -0600,
30,I,0,None,29,29,0,None,1,,,0,29,29,29,208.1254515000037,,,,,,,,,,,208.11252329999115,208.1254515000037,208.1254515000037,208.3086506999971,208.3252014000027,210.109775799996,None,1,,,,000014,001,2024-10-09_16h30.20.320,cpt_test,2024.2.2,60.15533309338619,2024-10-09 16h35.22.242464 -0600,
31,F,0,None,30,30,0,None,1,,,0,30,30,30,210.12784189998638,,,,,,,,,,,210.1099467999884,210.12784189998638,210.12784189998638,210.3071140999964,210.3404326000018,212.10834879998583,None,1,,,,000014,001,2024-10-09_16h30.20.320,cpt_test,2024.2.2,60.15533309338619,2024-10-09 16h35.22.242464 -0600,
32,M,0,None,31,31,0,None,1,,,0,31,31,31,212.12829319998855,,,,,,,,,,,212.1085235000064,212.12829319998855,212.12829319998855,212.3054478999984,212.3390051999886,214.10679540000274,None,1,,,,000014,001,2024-10-09_16h30.20.320,cpt_test,2024.2.2,60.15533309338619,2024-10-09 16h35.22.242464 -0600,
33,T,0,None,32,32,0,None,1,,,0,32,32,32,214.12087210000027,,,,,,,,,,,214.1069703999965,214.12087210000027,214.12087210000027,214.30403699999442,214.32046429999173,216.10538789999555,None,1,,,,000014,001,2024-10-09_16h30.20.320,cpt_test,2024.2.2,60.15533309338619,2024-10-09 16h35.22.242464 -0600,
34,A,0,None,33,33,0,None,1,,,0,33,33,33,216.1191920999845,,,,,,,,,,,216.10558460000902,216.1191920999845,216.1191920999845,216.30229449999752,216.31880109998747,218.1038406000007,None,1,,,,000014,001,2024-10-09_16h30.20.320,cpt_test,2024.2.2,60.15533309338619,2024-10-09 16h35.22.242464 -0600,
35,E,0,None,34,34,0,None,1,,,0,34,34,34,218.12189599999692,,,,,,,,,,,218.10401899999124,218.12189599999692,218.12189599999692,218.30090549998567,218.33400460000848,220.10082990000956,None,1,,,,000014,001,2024-10-09_16h30.20.320,cpt_test,2024.2.2,60.15533309338619,2024-10-09 16h35.22.242464 -0600,
36,X,1,x,35,35,0,x,1,0.4519925999920815,0.22802239999873564,0,35,35,35,220.11565890000202,,,,,,,,,,,220.10097589998622,220.11565890000202,220.11565890000202,220.31554869998945,220.31554869998945,222.11701190000167,x,1,0.4519925999920815,0.22802239999873564,,000014,001,2024-10-09_16h30.20.320,cpt_test,2024.2.2,60.15533309338619,2024-10-09 16h35.22.242464 -0600,
37,A,0,None,36,36,0,None,1,,,0,36,36,36,222.13101079998887,,,,,,,,,,,222.11720310000237,222.13101079998887,222.13101079998887,222.31392640000558,222.3305141000019,224.11575359999551,None,1,,,,000014,001,2024-10-09_16h30.20.320,cpt_test,2024.2.2,60.15533309338619,2024-10-09 16h35.22.242464 -0600,
38,S,0,None,37,37,0,None,1,,,0,37,37,37,224.12947630000417,,,,,,,,,,,224.11594620000687,224.12947630000417,224.12947630000417,224.31241630000295,224.32881569999154,226.11368340000627,None,1,,,,000014,001,2024-10-09_16h30.20.320,cpt_test,2024.2.2,60.15533309338619,2024-10-09 16h35.22.242464 -0600,
39,U,0,None,38,38,0,None,1,,,0,38,38,38,226.13241729998845,,,,,,,,,,,226.1138748000085,226.13241729998845,226.13241729998845,226.31121889999486,226.343658400001,228.1117438999936,None,1,,,,000014,001,2024-10-09_16h30.20.320,cpt_test,2024.2.2,60.15533309338619,2024-10-09 16h35.22.242464 -0600,
40,U,0,None,39,39,0,None,1,,,0,39,39,39,228.12594830000307,,,,,,,,,,,228.11190499999793,228.12594830000307,228.12594830000307,228.30920479999622,228.32546510000248,230.10933089998434,None,1,,,,000014,001,2024-10-09_16h30.20.320,cpt_test,2024.2.2,60.15533309338619,2024-10-09 16h35.22.242464 -0600,
41,Q,0,None,40,40,0,None,1,,,0,40,40,40,230.1279256999842,,,,,,,,,,,230.10947210001177,230.1279256999842,230.1279256999842,230.30763629998546,230.34058779999032,232.10863500001142,None,1,,,,000014,001,2024-10-09_16h30.20.320,cpt_test,2024.2.2,60.15533309338619,2024-10-09 16h35.22.242464 -0600,
42,E,0,None,41,41,0,None,1,,,0,41,41,41,232.1224336999876,,,,,,,,,,,232.10880469999393,232.1224336999876,232.1224336999876,232.30728730000556,232.32276089998777,234.10671960000764,None,1,,,,000014,001,2024-10-09_16h30.20.320,cpt_test,2024.2.2,60.15533309338619,2024-10-09 16h35.22.242464 -0600,
43,B,0,None,42,42,0,None,1,,,0,42,42,42,234.12604510001256,,,,,,,,,,,234.10688209999353,234.12604510001256,234.12604510001256,234.30396379999002,234.33708659998956,236.1059711999842,None,1,,,,000014,001,2024-10-09_16h30.20.320,cpt_test,2024.2.2,60.15533309338619,2024-10-09 16h35.22.242464 -0600,
44,O,0,None,43,43,0,None,1,,,0,43,43,43,236.1197348999849,,,,,,,,,,,236.10617409998667,236.1197348999849,236.1197348999849,236.30271329998504,236.31893599999603,238.10479459998896,None,1,,,,000014,001,2024-10-09_16h30.20.320,cpt_test,2024.2.2,60.15533309338619,2024-10-09 16h35.22.242464 -0600,
45,E,0,None,44,44,0,None,1,,,0,44,44,44,238.11761600000318,,,,,,,,,,,238.1050292,238.11761600000318,238.11761600000318,238.30099809999228,238.31721959999413,240.10255899999174,None,1,,,,000014,001,2024-10-09_16h30.20.320,cpt_test,2024.2.2,60.15533309338619,2024-10-09 16h35.22.242464 -0600,
46,F,0,None,45,45,0,None,1,,,0,45,45,45,240.11602829999174,,,,,,,,,,,240.10277950001182,240.11602829999174,240.11602829999174,240.3159333000076,240.3159333000076,242.10128199998871,None,1,,,,000014,001,2024-10-09_16h30.20.320,cpt_test,2024.2.2,60.15533309338619,2024-10-09 16h35.22.242464 -0600,
47,V,0,None,46,46,0,None,1,,,0,46,46,46,242.12293799998588,,,,,,,,,,,242.1014972999983,242.12293799998588,242.12293799998588,242.31437479998567,242.33067819999997,244.11540889999014,None,1,,,,000014,001,2024-10-09_16h30.20.320,cpt_test,2024.2.2,60.15533309338619,2024-10-09 16h35.22.242464 -0600,
48,X,1,x,47,47,0,x,1,0.4110122000274714,0.16854099999181926,0,47,47,47,244.12947509999503,,,,,,,,,,,244.1155885999906,244.12947509999503,244.12947509999503,244.31269669998437,244.32886849998613,246.1143926999939,x,1,0.4110122000274714,0.16854099999181926,,000014,001,2024-10-09_16h30.20.320,cpt_test,2024.2.2,60.15533309338619,2024-10-09 16h35.22.242464 -0600,
49,X,1,x,48,48,0,x,1,0.5338355000130832,0.16710259998217225,0,48,48,48,246.12762330000987,,,,,,,,,,,246.11459099999047,246.12762330000987,246.12762330000987,246.31101790000685,246.32729769998696,248.1128119000059,x,1,0.5338355000130832,0.16710259998217225,,000014,001,2024-10-09_16h30.20.320,cpt_test,2024.2.2,60.15533309338619,2024-10-09 16h35.22.242464 -0600,
50,C,0,None,49,49,0,None,1,,,0,49,49,49,248.13384309998946,,,,,,,,,,,248.1130259000056,248.13384309998946,248.13384309998946,248.30930069999886,248.34249169999384,250.11130849999608,None,1,,,,000014,001,2024-10-09_16h30.20.320,cpt_test,2024.2.2,60.15533309338619,2024-10-09 16h35.22.242464 -0600,
51,M,0,None,50,50,0,None,1,,,0,50,50,50,250.1244568999973,,,,,,,,,,,250.11151980000432,250.1244568999973,250.1244568999973,250.3077428000106,250.32398290000856,252.10969209999894,None,1,,,,000014,001,2024-10-09_16h30.20.320,cpt_test,2024.2.2,60.15533309338619,2024-10-09 16h35.22.242464 -0600,
52,D,0,None,51,51,0,None,1,,,0,51,51,51,252.1226800000004,,,,,,,,,,,252.1098922000092,252.1226800000004,252.1226800000004,252.30626250000205,252.32230759999948,254.10809100000188,None,1,,,,000014,001,2024-10-09_16h30.20.320,cpt_test,2024.2.2,60.15533309338619,2024-10-09 16h35.22.242464 -0600,
53,X,1,x,52,52,0,x,1,0.48665569999138825,0.16974519999348558,0,52,52,52,254.12104480000562,,,,,,,,,,,254.1083026000124,254.12104480000562,254.12104480000562,254.304206300003,254.3207914000086,256.1059688999958,x,1,0.48665569999138825,0.16974519999348558,,000014,001,2024-10-09_16h30.20.320,cpt_test,2024.2.2,60.15533309338619,2024-10-09 16h35.22.242464 -0600,
54,K,0,None,53,53,0,None,1,,,0,53,53,53,256.12671859998954,,,,,,,,,,,256.1061658000108,256.12671859998954,256.12671859998954,256.3029755000025,256.33563720001257,258.1047067999898,None,1,,,,000014,001,2024-10-09_16h30.20.320,cpt_test,2024.2.2,60.15533309338619,2024-10-09 16h35.22.242464 -0600,
55,X,1,x,54,54,0,x,1,0.43684310000389814,0.15933819999918342,0,54,54,54,258.1180284000002,,,,,,,,,,,258.1049095999915,258.1180284000002,258.1180284000002,258.30118680000305,258.3173340999929,260.1018621000112,x,1,0.43684310000389814,0.15933819999918342,,000014,001,2024-10-09_16h30.20.320,cpt_test,2024.2.2,60.15533309338619,2024-10-09 16h35.22.242464 -0600,
56,N,0,None,55,55,0,None,1,,,0,55,55,55,260.1199270999932,,,,,,,,,,,260.1020142000052,260.1199270999932,260.1199270999932,260.3159255000064,260.33250359998783,262.1010028999881,None,1,,,,000014,001,2024-10-09_16h30.20.320,cpt_test,2024.2.2,60.15533309338619,2024-10-09 16h35.22.242464 -0600,
57,M,0,None,56,56,0,None,1,,,0,56,56,56,262.1145210000104,,,,,,,,,,,262.10119029998896,262.1145210000104,262.1145210000104,262.3139998000115,262.3139998000115,264.11526140000205,None,1,,,264.11272119998466,000014,001,2024-10-09_16h30.20.320,cpt_test,2024.2.2,60.15533309338619,2024-10-09 16h35.22.242464 -0600,
58,X,1,x,57,57,0,x,1,0.36117980000562966,0.14986259999568574,0,57,57,57,264.12935919998563,,,,,,,,,,,264.1154000000097,264.12935919998563,264.12935919998563,264.312437399989,264.3289466999995,266.1140178999922,x,1,0.36117980000562966,0.14986259999568574,,000014,001,2024-10-09_16h30.20.320,cpt_test,2024.2.2,60.15533309338619,2024-10-09 16h35.22.242464 -0600,
59,F,0,None,58,58,0,None,1,,,0,58,58,58,266.12784659999306,,,,,,,,,,,266.1142067000037,266.12784659999306,266.12784659999306,266.311343999987,266.327523999993,268.1120302999916,None,1,,,,000014,001,2024-10-09_16h30.20.320,cpt_test,2024.2.2,60.15533309338619,2024-10-09 16h35.22.242464 -0600,
60,A,0,None,59,59,0,None,1,,,0,59,59,59,268.1263970999862,,,,,,,,,,,268.1121986999933,268.1263970999862,268.1263970999862,268.3096987000026,268.32602919999044,270.1108714999864,None,1,,,,000014,001,2024-10-09_16h30.20.320,cpt_test,2024.2.2,60.15533309338619,2024-10-09 16h35.22.242464 -0600,
61,X,1,x,60,60,0,x,1,0.29477809998206794,0.15906269999686629,0,60,60,60,270.1248593000055,,,,,,,,,,,270.1110584999842,270.1248593000055,270.1248593000055,270.30794520000927,270.3242157000059,272.1092306000064,x,1,0.29477809998206794,0.15906269999686629,,000014,001,2024-10-09_16h30.20.320,cpt_test,2024.2.2,60.15533309338619,2024-10-09 16h35.22.242464 -0600,
62,V,0,None,61,61,0,None,1,,,0,61,61,61,272.12323359999573,,,,,,,,,,,272.1094282999984,272.12323359999573,272.12323359999573,272.3061073999852,272.32272560001,274.1070156999922,None,1,,,,000014,001,2024-10-09_16h30.20.320,cpt_test,2024.2.2,60.15533309338619,2024-10-09 16h35.22.242464 -0600,
63,U,0,None,62,62,0,None,1,,,0,62,62,62,274.1212523999857,,,,,,,,,,,274.10715989998425,274.1212523999857,274.1212523999857,274.3048076000123,274.32092369999737,276.105538600008,None,1,,,,000014,001,2024-10-09_16h30.20.320,cpt_test,2024.2.2,60.15533309338619,2024-10-09 16h35.22.242464 -0600,
64,M,0,None,63,63,0,None,1,,,0,63,63,63,276.11969679998583,,,,,,,,,,,276.1057007999916,276.11969679998583,276.11969679998583,276.3031043999945,276.3193864999921,278.1039316999959,None,1,,,,000014,001,2024-10-09_16h30.20.320,cpt_test,2024.2.2,60.15533309338619,2024-10-09 16h35.22.242464 -0600,
65,X,1,x,64,64,0,x,1,0.41485530001227744,0.14440619997913018,0,64,64,64,278.1180834000115,,,,,,,,,,,278.10411549999844,278.1180834000115,278.1180834000115,278.30139149999013,278.3176960000128,280.10234660000424,x,1,0.41485530001227744,0.14440619997913018,,000014,001,2024-10-09_16h30.20.320,cpt_test,2024.2.2,60.15533309338619,2024-10-09 16h35.22.242464 -0600,
66,A,0,None,65,65,0,None,1,,,0,65,65,65,280.1165508000122,,,,,,,,,,,280.10252670000773,280.1165508000122,280.1165508000122,280.31589359999634,280.31589359999634,282.1170981999894,None,1,,,,000014,001,2024-10-09_16h30.20.320,cpt_test,2024.2.2,60.15533309338619,2024-10-09 16h35.22.242464 -0600,
67,N,0,None,66,66,0,None,1,,,0,66,66,66,282.1315284000011,,,,,,,,,,,282.11724900000263,282.1315284000011,282.1315284000011,282.314515200007,282.3311301000067,284.11540059998515,None,1,,,,000014,001,2024-10-09_16h30.20.320,cpt_test,2024.2.2,60.15533309338619,2024-10-09 16h35.22.242464 -0600,
68,H,0,None,67,67,0,None,1,,,0,67,67,67,284.1339560000051,,,,,,,,,,,284.11554389999947,284.1339560000051,284.1339560000051,284.31315549998544,284.3460999999952,286.11459700000705,None,1,,,,000014,001,2024-10-09_16h30.20.320,cpt_test,2024.2.2,60.15533309338619,2024-10-09 16h35.22.242464 -0600,
69,A,0,None,68,68,0,None,1,,,0,68,68,68,286.1282779999892,,,,,,,,,,,286.1147873000009,286.1282779999892,286.1282779999892,286.31149079999886,286.32760459999554,288.11278409999795,None,1,,,,000014,001,2024-10-09_16h30.20.320,cpt_test,2024.2.2,60.15533309338619,2024-10-09 16h35.22.242464 -0600,
70,X,1,x,69,69,0,x,1,0.36215380000066943,0.14882599998963997,0,69,69,69,288.1265968999942,,,,,,,,,,,288.1129582999856,288.1265968999942,288.1265968999942,288.3096846000117,288.32613060000585,290.1099777999916,x,1,0.36215380000066943,0.14882599998963997,,000014,001,2024-10-09_16h30.20.320,cpt_test,2024.2.2,60.15533309338619,2024-10-09 16h35.22.242464 -0600,
71,F,0,None,70,70,0,None,1,,,0,70,70,70,290.1246856999933,,,,,,,,,,,290.11013630000525,290.1246856999933,290.1246856999933,290.308149199991,290.3245223000122,292.1090899000119,None,1,,,,000014,001,2024-10-09_16h30.20.320,cpt_test,2024.2.2,60.15533309338619,2024-10-09 16h35.22.242464 -0600,
72,N,0,None,71,71,0,None,1,,,0,71,71,71,292.1231168000086,,,,,,,,,,,292.10926880000625,292.1231168000086,292.1231168000086,292.3065002000076,292.322842900001,294.1073083000083,None,1,,,,000014,001,2024-10-09_16h30.20.320,cpt_test,2024.2.2,60.15533309338619,2024-10-09 16h35.22.242464 -0600,
73,K,0,None,72,72,0,None,1,,,0,72,72,72,294.1214841000037,,,,,,,,,,,294.10745690000476,294.1214841000037,294.1214841000037,294.30477270000847,294.32107249999535,296.10570690000895,None,1,,,,000014,001,2024-10-09_16h30.20.320,cpt_test,2024.2.2,60.15533309338619,2024-10-09 16h35.22.242464 -0600,
74,Y,0,None,73,73,0,None,1,,,0,73,73,73,296.11996660000295,,,,,,,,,,,296.1058699999994,296.11996660000295,296.11996660000295,296.3033002000011,296.3196382999886,298.1040720999881,None,1,,,,000014,001,2024-10-09_16h30.20.320,cpt_test,2024.2.2,60.15533309338619,2024-10-09 16h35.22.242464 -0600,
75,Y,0,None,74,74,0,None,1,,,0,74,74,74,298.1182596999861,,,,,,,,,,,298.1042268000019,298.1182596999861,298.1182596999861,298.3015624000109,298.3176816999912,300.1023991999973,None,1,,,,000014,001,2024-10-09_16h30.20.320,cpt_test,2024.2.2,60.15533309338619,2024-10-09 16h35.22.242464 -0600,
76,R,0,None,75,75,0,None,1,,,0,75,75,75,300.11651669998537,,,,,,,,,,,300.10254890000215,300.11651669998537,300.11651669998537,300.29978120001033,300.3162755999947,302.11661349999486,None,1,,,302.11429319999297,000014,001,2024-10-09_16h30.20.320,cpt_test,2024.2.2,60.15533309338619,2024-10-09 16h35.22.242464 -0600,
77,X,1,x,76,76,0,x,1,0.3883454000169877,0.16347359999781474,0,76,76,76,302.1312857999874,,,,,,,,,,,302.1167538999871,302.1312857999874,302.1312857999874,302.314484100003,302.3307366000081,304.1160291999986,x,1,0.3883454000169877,0.16347359999781474,,000014,001,2024-10-09_16h30.20.320,cpt_test,2024.2.2,60.15533309338619,2024-10-09 16h35.22.242464 -0600,
78,R,0,None,77,77,0,None,1,,,0,77,77,77,304.1297896000033,,,,,,,,,,,304.1161943000043,304.1297896000033,304.1297896000033,304.3133051999903,304.32947910000803,306.1139897000103,None,1,,,,000014,001,2024-10-09_16h30.20.320,cpt_test,2024.2.2,60.15533309338619,2024-10-09 16h35.22.242464 -0600,
79,F,0,None,78,78,0,None,1,,,0,78,78,78,306.1281128000119,,,,,,,,,,,306.11415020001004,306.1281128000119,306.1281128000119,306.3115187000076,306.32799660001183,308.11263300001156,None,1,,,,000014,001,2024-10-09_16h30.20.320,cpt_test,2024.2.2,60.15533309338619,2024-10-09 16h35.22.242464 -0600,
80,K,0,None,79,79,0,None,1,,,0,79,79,79,308.12678560000495,,,,,,,,,,,308.1128110999998,308.12678560000495,308.12678560000495,308.30986089998623,308.3263927999942,310.1109776000085,None,1,,,,000014,001,2024-10-09_16h30.20.320,cpt_test,2024.2.2,60.15533309338619,2024-10-09 16h35.22.242464 -0600,
81,O,0,None,80,80,0,None,1,,,0,80,80,80,310.1252739999909,,,,,,,,,,,310.111141100002,310.1252739999909,310.1252739999909,310.3083792999969,310.3243897999928,312.10908510000445,None,1,,,,000014,001,2024-10-09_16h30.20.320,cpt_test,2024.2.2,60.15533309338619,2024-10-09 16h35.22.242464 -0600,
82,F,0,None,81,81,0,None,1,,,0,81,81,81,312.12363539999933,,,,,,,,,,,312.10922399998526,312.12363539999933,312.12363539999933,312.30636930000037,312.32296689998475,314.1072829999903,None,1,,,,000014,001,2024-10-09_16h30.20.320,cpt_test,2024.2.2,60.15533309338619,2024-10-09 16h35.22.242464 -0600,
83,F,0,None,82,82,0,None,1,,,0,82,82,82,314.12202169999364,,,,,,,,,,,314.107434000005,314.12202169999364,314.12202169999364,314.30515880000894,314.32115740000154,316.1064376999857,None,1,,,,000014,001,2024-10-09_16h30.20.320,cpt_test,2024.2.2,60.15533309338619,2024-10-09 16h35.22.242464 -0600,
84,W,0,None,83,83,0,None,1,,,0,83,83,83,316.12755710000056,,,,,,,,,,,316.1066220999928,316.12755710000056,316.12755710000056,316.30353450000985,316.33614820000366,318.10440939999535,None,1,,,,000014,001,2024-10-09_16h30.20.320,cpt_test,2024.2.2,60.15533309338619,2024-10-09 16h35.22.242464 -0600,
85,X,1,x,84,84,0,x,1,0.4805466999823693,0.14837680000346154,0,84,84,84,318.11868489999324,,,,,,,,,,,318.1045778999978,318.11868489999324,318.11868489999324,318.30141859999276,318.317956999992,320.102223599999,x,1,0.4805466999823693,0.14837680000346154,,000014,001,2024-10-09_16h30.20.320,cpt_test,2024.2.2,60.15533309338619,2024-10-09 16h35.22.242464 -0600,
86,J,0,None,85,85,0,None,1,,,0,85,85,85,320.11667819999275,,,,,,,,,,,320.10237999999663,320.11667819999275,320.11667819999275,320.2996947999927,320.316313599993,322.1009316999989,None,1,,,,000014,001,2024-10-09_16h30.20.320,cpt_test,2024.2.2,60.15533309338619,2024-10-09 16h35.22.242464 -0600,
87,N,0,None,86,86,0,None,1,,,0,86,86,86,322.11516700001084,,,,,,,,,,,322.10108039999614,322.11516700001084,322.11516700001084,322.31429959999514,322.31429959999514,324.11608959999285,None,1,,,,000014,001,2024-10-09_16h30.20.320,cpt_test,2024.2.2,60.15533309338619,2024-10-09 16h35.22.242464 -0600,
88,X,1,x,87,87,0,x,1,0.44491310001467355,0.17333160000271164,0,87,87,87,324.1303243000002,,,,,,,,,,,324.1162447000097,324.1303243000002,324.1303243000002,324.3132687000034,324.32963689998724,326.1144052000018,x,1,0.44491310001467355,0.17333160000271164,,000014,001,2024-10-09_16h30.20.320,cpt_test,2024.2.2,60.15533309338619,2024-10-09 16h35.22.242464 -0600,
89,T,0,None,88,88,0,None,1,,,0,88,88,88,326.1286185999925,,,,,,,,,,,326.1145605999918,326.1286185999925,326.1286185999925,326.31190140001127,326.32791580000776,328.11273110000184,None,1,,,,000014,001,2024-10-09_16h30.20.320,cpt_test,2024.2.2,60.15533309338619,2024-10-09 16h35.22.242464 -0600,
90,I,0,None,89,89,0,None,1,,,0,89,89,89,328.1269911999989,,,,,,,,,,,328.1128863999911,328.1269911999989,328.1269911999989,328.30980059999274,328.3264465999964,330.1103110999975,None,1,,,,000014,001,2024-10-09_16h30.20.320,cpt_test,2024.2.2,60.15533309338619,2024-10-09 16h35.22.242464 -0600,
91,P,0,None,90,90,0,None,1,,,0,90,90,90,330.1249206000066,,,,,,,,,,,330.1104544000118,330.1249206000066,330.1249206000066,330.30832010001177,330.3244535999838,332.1091720999975,None,1,,,,000014,001,2024-10-09_16h30.20.320,cpt_test,2024.2.2,60.15533309338619,2024-10-09 16h35.22.242464 -0600,
92,X,1,x,91,91,0,x,1,0.3800150000024587,0.16951320000225678,0,91,91,91,332.1234429999895,,,,,,,,,,,332.1093319999927,332.1234429999895,332.1234429999895,332.3067846999911,332.3233176000067,334.10848039999837,x,1,0.3800150000024587,0.16951320000225678,,000014,001,2024-10-09_16h30.20.320,cpt_test,2024.2.2,60.15533309338619,2024-10-09 16h35.22.242464 -0600,
93,B,0,None,92,92,0,None,1,,,0,92,92,92,334.1221480999957,,,,,,,,,,,334.10867419998976,334.1221480999957,334.1221480999957,334.30527159999474,334.3214205999975,336.106430099986,None,1,,,,000014,001,2024-10-09_16h30.20.320,cpt_test,2024.2.2,60.15533309338619,2024-10-09 16h35.22.242464 -0600,
94,M,0,None,93,93,0,None,1,,,0,93,93,93,336.1202513999888,,,,,,,,,,,336.1066106999933,336.1202513999888,336.1202513999888,336.3037092000013,336.31986119999783,338.1044266000099,None,1,,,,000014,001,2024-10-09_16h30.20.320,cpt_test,2024.2.2,60.15533309338619,2024-10-09 16h35.22.242464 -0600,
95,B,0,None,94,94,0,None,1,,,0,94,94,94,338.11862689998816,,,,,,,,,,,338.104585699999,338.11862689998816,338.11862689998816,338.30201650000527,338.31824689998757,340.10309379998944,None,1,,,,000014,001,2024-10-09_16h30.20.320,cpt_test,2024.2.2,60.15533309338619,2024-10-09 16h35.22.242464 -0600,
96,I,0,None,95,95,0,None,1,,,0,95,95,95,340.1168961999938,,,,,,,,,,,340.10326380000333,340.1168961999938,340.1168961999938,340.29989029999706,340.31647990000783,342.10162289999425,None,1,,,,000014,001,2024-10-09_16h30.20.320,cpt_test,2024.2.2,60.15533309338619,2024-10-09 16h35.22.242464 -0600,
97,X,1,x,96,96,0,x,1,0.33507749999989755,0.15909240001928993,0,96,96,96,342.1154853999906,,,,,,,,,,,342.10180870001204,342.1154853999906,342.1154853999906,342.3149531999952,342.3149531999952,344.1172547999886,x,1,0.33507749999989755,0.15909240001928993,,000014,001,2024-10-09_16h30.20.320,cpt_test,2024.2.2,60.15533309338619,2024-10-09 16h35.22.242464 -0600,
98,J,0,None,97,97,0,None,1,,,0,97,97,97,344.1301656999858,,,,,,,,,,,344.117485499999,344.1301656999858,344.1301656999858,344.31335909999325,344.3298447999987,346.11434249999,None,1,,,,000014,001,2024-10-09_16h30.20.320,cpt_test,2024.2.2,60.15533309338619,2024-10-09 16h35.22.242464 -0600,
99,X,1,x,98,98,0,x,1,0.38265519999549724,0.15367280002101324,0,98,98,98,346.12867899998673,,,,,,,,,,,346.1144992999907,346.12867899998673,346.12867899998673,346.31205869998666,346.3281552999979,348.1125608999864,x,1,0.38265519999549724,0.15367280002101324,,000014,001,2024-10-09_16h30.20.320,cpt_test,2024.2.2,60.15533309338619,2024-10-09 16h35.22.242464 -0600,
100,U,0,None,99,99,0,None,1,,,0,99,99,99,348.1271696999902,,,,,,,,,,,348.112710699992,348.1271696999902,348.1271696999902,348.31013769999845,348.3267194000073,350.11061649999465,None,1,,,,000014,001,2024-10-09_16h30.20.320,cpt_test,2024.2.2,60.15533309338619,2024-10-09 16h35.22.242464 -0600,
101,D,0,None,100,100,0,None,1,,,0,100,100,100,350.12536549998913,,,,,,,,,,,350.1107672000071,350.12536549998913,350.12536549998913,350.30876489999355,350.3250265000097,352.1100626999978,None,1,,,,000014,001,2024-10-09_16h30.20.320,cpt_test,2024.2.2,60.15533309338619,2024-10-09 16h35.22.242464 -0600,
102,X,1,x,101,101,0,x,1,0.4066906000080053,0.15867840001010336,0,101,101,101,352.1238737000094,,,,,,,,,,,352.1102416999929,352.1238737000094,352.1238737000094,352.3070747999882,352.3232244999963,354.10905040000216,x,1,0.4066906000080053,0.15867840001010336,,000014,001,2024-10-09_16h30.20.320,cpt_test,2024.2.2,60.15533309338619,2024-10-09 16h35.22.242464 -0600,
103,X,1,x,102,102,0,x,1,0.3582737999968231,0.13038630000664853,0,102,102,102,354.12172190001,,,,,,,,,,,354.1092580000113,354.12172190001,354.12172190001,354.3053504000127,354.32180179998977,356.1064441000053,x,1,0.3582737999968231,0.13038630000664853,,000014,001,2024-10-09_16h30.20.320,cpt_test,2024.2.2,60.15533309338619,2024-10-09 16h35.22.242464 -0600,
104,N,0,None,103,103,0,None,1,,,0,103,103,103,356.1206588000059,,,,,,,,,,,356.1066392000066,356.1206588000059,356.1206588000059,356.3038130000059,356.3199787999911,358.1046234999958,None,1,,,,000014,001,2024-10-09_16h30.20.320,cpt_test,2024.2.2,60.15533309338619,2024-10-09 16h35.22.242464 -0600,
105,U,0,None,104,104,0,None,1,,,0,104,104,104,358.1191153000109,,,,,,,,,,,358.10478399999556,358.1191153000109,358.1191153000109,358.3019948999863,358.3183624999947,360.1035605999932,None,1,,,,000014,001,2024-10-09_16h30.20.320,cpt_test,2024.2.2,60.15533309338619,2024-10-09 16h35.22.242464 -0600,
106,T,0,None,105,105,0,None,1,,,0,105,105,105,360.1170882000006,,,,,,,,,,,360.1037430999859,360.1170882000006,360.1170882000006,360.3005080999865,360.31677070001024,362.1012636999949,None,1,,,,000014,001,2024-10-09_16h30.20.320,cpt_test,2024.2.2,60.15533309338619,2024-10-09 16h35.22.242464 -0600,
107,W,0,None,106,106,0,None,1,,,0,106,106,106,362.11553099998855,,,,,,,,,,,362.1014193999872,362.11553099998855,362.11553099998855,362.31497279999894,362.31497279999894,364.1164846000029,None,1,,,,000014,001,2024-10-09_16h30.20.320,cpt_test,2024.2.2,60.15533309338619,2024-10-09 16h35.22.242464 -0600,
108,N,0,None,107,107,0,None,1,,,0,107,107,107,364.13041740001063,,,,,,,,,,,364.116655299993,364.13041740001063,364.13041740001063,364.3138520999928,364.33013879999635,366.1149976000015,None,1,,,,000014,001,2024-10-09_16h30.20.320,cpt_test,2024.2.2,60.15533309338619,2024-10-09 16h35.22.242464 -0600,
109,R,0,None,108,108,0,None,1,,,0,108,108,108,366.1290052999975,,,,,,,,,,,366.11517400000594,366.1290052999975,366.1290052999975,366.31191899999976,366.3285181999963,368.11325160000706,None,1,,,,000014,001,2024-10-09_16h30.20.320,cpt_test,2024.2.2,60.15533309338619,2024-10-09 16h35.22.242464 -0600,
110,X,1,x,109,109,0,x,1,0.3864818000001833,0.1578678000078071,0,109,109,109,368.12717029999476,,,,,,,,,,,368.113416600012,368.12717029999476,368.12717029999476,368.3105957999942,368.3267058999918,370.1114612999954,x,1,0.3864818000001833,0.1578678000078071,,000014,001,2024-10-09_16h30.20.320,cpt_test,2024.2.2,60.15533309338619,2024-10-09 16h35.22.242464 -0600,
111,A,0,None,110,110,0,None,1,,,0,110,110,110,370.1254479000054,,,,,,,,,,,370.1116378000006,370.1254479000054,370.1254479000054,370.3089624999848,370.3251364000025,372.10984109999845,None,1,,,,000014,001,2024-10-09_16h30.20.320,cpt_test,2024.2.2,60.15533309338619,2024-10-09 16h35.22.242464 -0600,
112,X,1,x,111,111,0,x,1,0.5170237999991514,0.12695700000040233,0,111,111,111,372.12410049999016,,,,,,,,,,,372.11001239999314,372.12410049999016,372.12410049999016,372.3072339000064,372.3232880999858,374.10807220000424,x,1,0.5170237999991514,0.12695700000040233,,000014,001,2024-10-09_16h30.20.320,cpt_test,2024.2.2,60.15533309338619,2024-10-09 16h35.22.242464 -0600,
113,G,0,None,112,112,0,None,1,,,0,112,112,112,374.122259900003,,,,,,,,,,,374.1082322000002,374.122259900003,374.122259900003,374.3054634,374.32175740000093,376.106556099985,None,1,,,,000014,001,2024-10-09_16h30.20.320,cpt_test,2024.2.2,60.15533309338619,2024-10-09 16h35.22.242464 -0600,
114,O,0,None,113,113,0,None,1,,,0,113,113,113,376.1207138999889,,,,,,,,,,,376.1067160000093,376.1207138999889,376.1207138999889,376.3041261000035,376.32026320000296,378.1046959999949,None,1,,,,000014,001,2024-10-09_16h30.20.320,cpt_test,2024.2.2,60.15533309338619,2024-10-09 16h35.22.242464 -0600,
115,U,0,None,114,114,0,None,1,,,0,114,114,114,378.11894409998786,,,,,,,,,,,378.1048524999933,378.11894409998786,378.11894409998786,378.30201909999596,378.31848270000773,380.10313360000146,None,1,,,,000014,001,2024-10-09_16h30.20.320,cpt_test,2024.2.2,60.15533309338619,2024-10-09 16h35.22.242464 -0600,
116,X,1,x,115,115,0,x,1,0.32993579999310896,0.14027520001400262,0,115,115,115,380.11763679998694,,,,,,,,,,,380.1033005999925,380.11763679998694,380.11763679998694,380.3007726999931,380.31709359999513,382.1017925000051,x,1,0.32993579999310896,0.14027520001400262,,000014,001,2024-10-09_16h30.20.320,cpt_test,2024.2.2,60.15533309338619,2024-10-09 16h35.22.242464 -0600,
117,X,1,x,116,116,0,x,1,0.3751866000238806,0.16278699997928925,0,116,116,116,382.1155148000107,,,,,,,,,,,382.10195869999006,382.1155148000107,382.1155148000107,382.3151877000055,382.3151877000055,384.11628960000235,x,1,0.3751866000238806,0.16278699997928925,,000014,001,2024-10-09_16h30.20.320,cpt_test,2024.2.2,60.15533309338619,2024-10-09 16h35.22.242464 -0600,
118,C,0,None,117,117,0,None,1,,,0,117,117,117,384.1308213000011,,,,,,,,,,,384.1164504000044,384.1308213000011,384.1308213000011,384.3141409000091,384.33033339999383,386.1147687000048,None,1,,,,000014,001,2024-10-09_16h30.20.320,cpt_test,2024.2.2,60.15533309338619,2024-10-09 16h35.22.242464 -0600,
119,A,0,None,118,118,0,None,1,,,0,118,118,118,386.12936120000086,,,,,,,,,,,386.11491989999195,386.12936120000086,386.12936120000086,386.3120501000085,386.32857789998525,388.11289099999703,None,1,,,,000014,001,2024-10-09_16h30.20.320,cpt_test,2024.2.2,60.15533309338619,2024-10-09 16h35.22.242464 -0600,
120,X,1,x,119,119,0,x,1,0.3664961000031326,0.1644724999787286,0,119,119,119,388.127834599989,,,,,,,,,,,388.11303659999976,388.127834599989,388.127834599989,388.3107895999856,388.3272084000055,390.1112740999961,x,1,0.3664961000031326,0.1644724999787286,,000014,001,2024-10-09_16h30.20.320,cpt_test,2024.2.2,60.15533309338619,2024-10-09 16h35.22.242464 -0600,
121,H,0,None,120,120,0,None,1,,,0,120,120,120,390.1259993999847,,,,,,,,,,,390.11142500001006,390.1259993999847,390.1259993999847,390.3088202000072,390.32545430000755,392.1101778000011,None,1,,,,000014,001,2024-10-09_16h30.20.320,cpt_test,2024.2.2,60.15533309338619,2024-10-09 16h35.22.242464 -0600,
122,M,0,None,121,121,0,None,1,,,0,121,121,121,392.12440120000974,,,,,,,,,,,392.11035130001255,392.12440120000974,392.12440120000974,392.30745449999813,392.32380600000033,394.108799300011,None,1,,,,000014,001,2024-10-09_16h30.20.320,cpt_test,2024.2.2,60.15533309338619,2024-10-09 16h35.22.242464 -0600,
123,V,0,None,122,122,0,None,1,,,0,122,122,122,394.12256160000106,,,,,,,,,,,394.1089759999886,394.12256160000106,394.12256160000106,394.30579760001274,394.3219309000124,396.1065111999924,None,1,,,,000014,001,2024-10-09_16h30.20.320,cpt_test,2024.2.2,60.15533309338619,2024-10-09 16h35.22.242464 -0600,
124,K,0,None,123,123,0,None,1,,,0,123,123,123,396.121089399996,,,,,,,,,,,396.10666210000636,396.121089399996,396.121089399996,396.30422270001145,396.3206293999974,398.10537619999377,None,1,,,,000014,001,2024-10-09_16h30.20.320,cpt_test,2024.2.2,60.15533309338619,2024-10-09 16h35.22.242464 -0600,
125,G,0,None,124,124,0,None,1,,,0,124,124,124,398.1192958999891,,,,,,,,,,,398.1055541000096,398.1192958999891,398.1192958999891,398.3025001999922,398.3188197000127,400.1038319999934,None,1,,,,000014,001,2024-10-09_16h30.20.320,cpt_test,2024.2.2,60.15533309338619,2024-10-09 16h35.22.242464 -0600,
126,A,0,None,125,125,0,None,1,,,0,125,125,125,400.11746270000003,,,,,,,,,,,400.10401219999767,400.11746270000003,400.11746270000003,400.30076089999056,400.3171760000114,402.1023336999933,None,1,,,,000014,001,2024-10-09_16h30.20.320,cpt_test,2024.2.2,60.15533309338619,2024-10-09 16h35.22.242464 -0600,
127,X,1,x,126,126,0,x,1,0.3678852999873925,0.16319739999016747,0,126,126,126,402.1160506999877,,,,,,,,,,,402.10251289998996,402.1160506999877,402.1160506999877,402.31549199999426,402.31549199999426,404.11730660000467,x,1,0.3678852999873925,0.16319739999016747,,000014,001,2024-10-09_16h30.20.320,cpt_test,2024.2.2,60.15533309338619,2024-10-09 16h35.22.242464 -0600,
128,N,0,None,127,127,0,None,1,,,0,127,127,127,404.13111180000124,,,,,,,,,,,404.1174941000063,404.13111180000124,404.13111180000124,404.3141762999876,404.3306012999965,406.11585259999265,None,1,,,,000014,001,2024-10-09_16h30.20.320,cpt_test,2024.2.2,60.15533309338619,2024-10-09 16h35.22.242464 -0600,
129,Y,0,None,128,128,0,None,1,,,0,128,128,128,406.1294773000118,,,,,,,,,,,406.1160404999973,406.1294773000118,406.1294773000118,406.31261679998715,406.32895590001135,408.11338850000175,None,1,,,,000014,001,2024-10-09_16h30.20.320,cpt_test,2024.2.2,60.15533309338619,2024-10-09 16h35.22.242464 -0600,
130,W,0,None,129,129,0,None,1,,,0,129,129,129,408.12780210000346,,,,,,,,,,,408.1135486999992,408.12780210000346,408.12780210000346,408.31106030000956,408.3272457999992,410.11114120000275,None,1,,,,000014,001,2024-10-09_16h30.20.320,cpt_test,2024.2.2,60.15533309338619,2024-10-09 16h35.22.242464 -0600,
131,L,0,None,130,130,0,None,1,,,0,130,130,130,410.12627069998416,,,,,,,,,,,410.1112793000066,410.12627069998416,410.12627069998416,410.3094868999906,410.32566669999505,412.11018809999223,None,1,,,,000014,001,2024-10-09_16h30.20.320,cpt_test,2024.2.2,60.15533309338619,2024-10-09 16h35.22.242464 -0600,
132,F,0,None,131,131,0,None,1,,,0,131,131,131,412.1245143999986,,,,,,,,,,,412.11034169999766,412.1245143999986,412.1245143999986,412.307616999984,412.3236142999958,414.10805099998834,None,1,,,,000014,001,2024-10-09_16h30.20.320,cpt_test,2024.2.2,60.15533309338619,2024-10-09 16h35.22.242464 -0600,
133,E,0,None,132,132,0,None,1,,,0,132,132,132,414.12270889998763,,,,,,,,,,,414.1081988000078,414.12270889998763,414.12270889998763,414.3057234000007,414.32229469998856,416.1069407000032,None,1,,,,000014,001,2024-10-09_16h30.20.320,cpt_test,2024.2.2,60.15533309338619,2024-10-09 16h35.22.242464 -0600,
134,L,0,None,133,133,0,None,1,,,0,133,133,133,416.120991600008,,,,,,,,,,,416.10709939998924,416.120991600008,416.120991600008,416.30427570000757,416.3206752999977,418.1051526000083,None,1,,,,000014,001,2024-10-09_16h30.20.320,cpt_test,2024.2.2,60.15533309338619,2024-10-09 16h35.22.242464 -0600,
135,K,0,None,134,134,0,None,1,,,0,134,134,134,418.1192003999895,,,,,,,,,,,418.1053057000099,418.1192003999895,418.1192003999895,418.30272030000924,418.31880680000177,420.1035286000115,None,1,,,,000014,001,2024-10-09_16h30.20.320,cpt_test,2024.2.2,60.15533309338619,2024-10-09 16h35.22.242464 -0600,
136,Q,0,None,135,135,0,None,1,,,0,135,135,135,420.1180624999979,,,,,,,,,,,420.10369039999205,420.1180624999979,420.1180624999979,420.3012332000071,420.3172912999871,422.1020945000055,None,1,,,,000014,001,2024-10-09_16h30.20.320,cpt_test,2024.2.2,60.15533309338619,2024-10-09 16h35.22.242464 -0600,
137,X,1,x,136,136,0,x,1,0.38962760000140406,0.1910374999861233,0,136,136,136,422.11618610000005,,,,,,,,,,,422.1022599999851,422.11618610000005,422.11618610000005,422.31576219998533,422.31576219998533,424.1024546000117,x,1,0.38962760000140406,0.1910374999861233,,000014,001,2024-10-09_16h30.20.320,cpt_test,2024.2.2,60.15533309338619,2024-10-09 16h35.22.242464 -0600,
138,J,0,None,137,137,0,None,1,,,0,137,137,137,424.11424669998814,,,,,,,,,,,424.1027027000091,424.11424669998814,424.11424669998814,424.3141547999985,424.3141547999985,426.11528259998886,None,1,,,,000014,001,2024-10-09_16h30.20.320,cpt_test,2024.2.2,60.15533309338619,2024-10-09 16h35.22.242464 -0600,
139,X,1,x,138,138,0,x,1,0.4066844999906607,0.15350709998165257,0,138,138,138,426.1298007000005,,,,,,,,,,,426.11543090001214,426.1298007000005,426.1298007000005,426.3126576000068,426.3291450999968,428.11353619999136,x,1,0.4066844999906607,0.15350709998165257,,000014,001,2024-10-09_16h30.20.320,cpt_test,2024.2.2,60.15533309338619,2024-10-09 16h35.22.242464 -0600,
140,E,0,None,139,139,0,None,1,,,0,139,139,139,428.1276688000071,,,,,,,,,,,428.1136949000065,428.1276688000071,428.1276688000071,428.31092970000464,428.32754629998817,430.1121087000065,None,1,,,,000014,001,2024-10-09_16h30.20.320,cpt_test,2024.2.2,60.15533309338619,2024-10-09 16h35.22.242464 -0600,
141,T,0,None,140,140,0,None,1,,,0,140,140,140,430.12614810001105,,,,,,,,,,,430.11225440001,430.12614810001105,430.12614810001105,430.30950490001123,430.32579529998475,432.1100729999889,None,1,,,,000014,001,2024-10-09_16h30.20.320,cpt_test,2024.2.2,60.15533309338619,2024-10-09 16h35.22.242464 -0600,
142,X,1,x,141,141,0,x,1,0.36767340000369586,0.17747290001716465,0,141,141,141,432.12445709999884,,,,,,,,,,,432.1102310999995,432.12445709999884,432.12445709999884,432.3078230000101,432.32413709998946,434.1086687000061,x,1,0.36767340000369586,0.17747290001716465,,000014,001,2024-10-09_16h30.20.320,cpt_test,2024.2.2,60.15533309338619,2024-10-09 16h35.22.242464 -0600,
143,Q,0,None,142,142,0,None,1,,,0,142,142,142,434.1227147000027,,,,,,,,,,,434.1088339999842,434.1227147000027,434.1227147000027,434.3063497999974,434.32247529999586,436.1068107000028,None,1,,,,000014,001,2024-10-09_16h30.20.320,cpt_test,2024.2.2,60.15533309338619,2024-10-09 16h35.22.242464 -0600,
144,V,0,None,143,143,0,None,1,,,0,143,143,143,436.12098189999233,,,,,,,,,,,436.1069623999938,436.12098189999233,436.12098189999233,436.3045007000037,436.3207272999862,438.1052594000066,None,1,,,,000014,001,2024-10-09_16h30.20.320,cpt_test,2024.2.2,60.15533309338619,2024-10-09 16h35.22.242464 -0600,
145,Y,0,None,144,144,0,None,1,,,0,144,144,144,438.1196811000118,,,,,,,,,,,438.1054210999864,438.1196811000118,438.1196811000118,438.30298499998753,438.31937010001275,440.10421849999693,None,1,,,,000014,001,2024-10-09_16h30.20.320,cpt_test,2024.2.2,60.15533309338619,2024-10-09 16h35.22.242464 -0600,
146,O,0,None,145,145,0,None,1,,,0,145,145,145,440.11816199999885,,,,,,,,,,,440.1044087999908,440.11816199999885,440.11816199999885,440.30127550000907,440.3175027999969,442.1029611999984,None,1,,,,000014,001,2024-10-09_16h30.20.320,cpt_test,2024.2.2,60.15533309338619,2024-10-09 16h35.22.242464 -0600,
147,T,0,None,146,146,0,None,1,,,0,146,146,146,442.11613179999404,,,,,,,,,,,442.1031602000003,442.11613179999404,442.11613179999404,442.3158635,442.3158635,444.1168100000068,None,1,,,,000014,001,2024-10-09_16h30.20.320,cpt_test,2024.2.2,60.15533309338619,2024-10-09 16h35.22.242464 -0600,
148,X,1,x,147,147,0,x,1,0.3336989000090398,0.14887209999142215,0,147,147,147,444.13132129999576,,,,,,,,,,,444.11695530000725,444.13132129999576,444.13132129999576,444.3145871000015,444.3310974999913,446.11519469998893,x,1,0.3336989000090398,0.14887209999142215,,000014,001,2024-10-09_16h30.20.320,cpt_test,2024.2.2,60.15533309338619,2024-10-09 16h35.22.242464 -0600,
149,T,0,None,148,148,0,None,1,,,0,148,148,148,446.1294460000063,,,,,,,,,,,446.11534339998616,446.1294460000063,446.1294460000063,446.3129603000125,446.3292763000063,448.1137231999892,None,1,,,,000014,001,2024-10-09_16h30.20.320,cpt_test,2024.2.2,60.15533309338619,2024-10-09 16h35.22.242464 -0600,
150,S,0,None,149,149,0,None,1,,,0,149,149,149,448.1280149999948,,,,,,,,,,,448.11388889999944,448.1280149999948,448.1280149999948,448.3113258999947,448.32770339999115,450.1120138000115,None,1,,,,000014,001,2024-10-09_16h30.20.320,cpt_test,2024.2.2,60.15533309338619,2024-10-09 16h35.22.242464 -0600,
151,L,0,None,150,150,0,None,1,,,0,150,150,150,450.1263644999999,,,,,,,,,,,450.11217020000913,450.1263644999999,450.1263644999999,450.3093991999922,450.3258157999953,452.1118186000094,None,1,,,,000014,001,2024-10-09_16h30.20.320,cpt_test,2024.2.2,60.15533309338619,2024-10-09 16h35.22.242464 -0600,
152,V,0,None,151,151,0,None,1,,,0,151,151,151,452.12485990001005,,,,,,,,,,,452.11202599998796,452.12485990001005,452.12485990001005,452.308011599991,452.3242445999931,454.10954229999334,None,1,,,,000014,001,2024-10-09_16h30.20.320,cpt_test,2024.2.2,60.15533309338619,2024-10-09 16h35.22.242464 -0600,
153,C,0,None,152,152,0,None,1,,,0,152,152,152,454.1231728999992,,,,,,,,,,,454.10972849998507,454.1231728999992,454.1231728999992,454.306282000005,454.32276509999065,456.10728249998647,None,1,,,,000014,001,2024-10-09_16h30.20.320,cpt_test,2024.2.2,60.15533309338619,2024-10-09 16h35.22.242464 -0600,
154,U,0,None,153,153,0,None,1,,,0,153,153,153,456.1210751000035,,,,,,,,,,,456.1074358999904,456.1210751000035,456.1210751000035,456.3056626000034,456.3217519999889,458.106304099987,None,1,,,,000014,001,2024-10-09_16h30.20.320,cpt_test,2024.2.2,60.15533309338619,2024-10-09 16h35.22.242464 -0600,
155,X,1,x,154,154,0,x,1,0.42444229999091476,0.1524506999994628,0,154,154,154,458.1200978999841,,,,,,,,,,,458.1065062999842,458.1200978999841,458.1200978999841,458.3029527000035,458.3192899999849,460.1039660999959,x,1,0.42444229999091476,0.1524506999994628,,000014,001,2024-10-09_16h30.20.320,cpt_test,2024.2.2,60.15533309338619,2024-10-09 16h35.22.242464 -0600,
156,X,1,x,155,155,0,x,1,0.5731286999944132,0.16750820001470856,0,155,155,155,460.11819919999107,,,,,,,,,,,460.1041361000098,460.11819919999107,460.11819919999107,460.3015032999974,460.31754739998723,462.1026772999903,x,1,0.5731286999944132,0.16750820001470856,,000014,001,2024-10-09_16h30.20.320,cpt_test,2024.2.2,60.15533309338619,2024-10-09 16h35.22.242464 -0600,
157,L,0,None,156,156,0,None,1,,,0,156,156,156,462.1171391000098,,,,,,,,,,,462.1028592000075,462.1171391000098,462.1171391000098,462.29965410000295,462.3165922999906,464.11698270001216,None,1,,,464.1143400000001,000014,001,2024-10-09_16h30.20.320,cpt_test,2024.2.2,60.15533309338619,2024-10-09 16h35.22.242464 -0600,
158,W,0,None,157,157,0,None,1,,,0,157,157,157,464.1314757000073,,,,,,,,,,,464.11712969999644,464.1314757000073,464.1314757000073,464.3148688999936,464.33107359998394,466.11570540000685,None,1,,,,000014,001,2024-10-09_16h30.20.320,cpt_test,2024.2.2,60.15533309338619,2024-10-09 16h35.22.242464 -0600,
159,A,0,None,158,158,0,None,1,,,0,158,158,158,466.1302624999953,,,,,,,,,,,466.11584350001067,466.1302624999953,466.1302624999953,466.31324680001126,466.3294093000004,468.1141340000031,None,1,,,,000014,001,2024-10-09_16h30.20.320,cpt_test,2024.2.2,60.15533309338619,2024-10-09 16h35.22.242464 -0600,
160,X,1,x,159,159,0,x,1,0.4032086000079289,0.15330619999440387,0,159,159,159,468.12819459999446,,,,,,,,,,,468.1143081999908,468.12819459999446,468.12819459999446,468.311483700003,468.32745119999163,470.1119741000002,x,1,0.4032086000079289,0.15330619999440387,,000014,001,2024-10-09_16h30.20.320,cpt_test,2024.2.2,60.15533309338619,2024-10-09 16h35.22.242464 -0600,
161,A,0,None,160,160,0,None,1,,,0,160,160,160,470.1266985000111,,,,,,,,,,,470.11212979999254,470.1266985000111,470.1266985000111,470.3100475000101,470.3258968000009,472.1108419999946,None,1,,,,000014,001,2024-10-09_16h30.20.320,cpt_test,2024.2.2,60.15533309338619,2024-10-09 16h35.22.242464 -0600,
162,M,0,None,161,161,0,None,1,,,0,161,161,161,472.1252192000102,,,,,,,,,,,472.1110158000083,472.1252192000102,472.1252192000102,472.307968100009,472.3245050999976,474.10896559999674,None,1,,,,000014,001,2024-10-09_16h30.20.320,cpt_test,2024.2.2,60.15533309338619,2024-10-09 16h35.22.242464 -0600,
163,X,1,x,162,162,0,x,1,0.4172291000140831,0.1793617999937851,0,162,162,162,474.12288529999205,,,,,,,,,,,474.1091075000004,474.12288529999205,474.12288529999205,474.3067877999856,474.3228340999922,476.10737750001135,x,1,0.4172291000140831,0.1793617999937851,,000014,001,2024-10-09_16h30.20.320,cpt_test,2024.2.2,60.15533309338619,2024-10-09 16h35.22.242464 -0600,
164,X,1,x,163,163,0,x,1,0.38533859999733977,0.15967449999880046,0,163,163,163,476.12174999999115,,,,,,,,,,,476.1075459999847,476.12174999999115,476.12174999999115,476.30499889998464,476.3213029000035,478.1056763000088,x,1,0.38533859999733977,0.15967449999880046,,000014,001,2024-10-09_16h30.20.320,cpt_test,2024.2.2,60.15533309338619,2024-10-09 16h35.22.242464 -0600,
165,K,0,None,164,164,0,None,1,,,0,164,164,164,478.1199096000055,,,,,,,,,,,478.1058270999929,478.1199096000055,478.1199096000055,478.3030717000074,478.3194346000091,480.10435380000854,None,1,,,,000014,001,2024-10-09_16h30.20.320,cpt_test,2024.2.2,60.15533309338619,2024-10-09 16h35.22.242464 -0600,
166,X,1,x,165,165,0,x,1,0.365954300010344,0.16822510000201873,0,165,165,165,480.11851359999855,,,,,,,,,,,480.1045003999898,480.11851359999855,480.11851359999855,480.3014766999986,480.3178886999958,482.10261100000935,x,1,0.365954300010344,0.16822510000201873,,000014,001,2024-10-09_16h30.20.320,cpt_test,2024.2.2,60.15533309338619,2024-10-09 16h35.22.242464 -0600,
167,M,0,None,166,166,0,None,1,,,0,166,166,166,482.11660730000585,,,,,,,,,,,482.1027694999939,482.11660730000585,482.11660730000585,482.29979230000754,482.3161015000078,484.1013413000037,None,1,,,,000014,001,2024-10-09_16h30.20.320,cpt_test,2024.2.2,60.15533309338619,2024-10-09 16h35.22.242464 -0600,
168,X,1,x,167,167,0,x,1,0.38900460000149906,0.1448930000187829,0,167,167,167,484.1152002000017,,,,,,,,,,,484.10149490000913,484.1152002000017,484.1152002000017,484.3147489000112,484.3147489000112,486.11612610000884,x,1,0.38900460000149906,0.1448930000187829,,000014,001,2024-10-09_16h30.20.320,cpt_test,2024.2.2,60.15533309338619,2024-10-09 16h35.22.242464 -0600,
169,A,0,None,168,168,0,None,1,,,0,168,168,168,486.13010819998453,,,,,,,,,,,486.11628109999583,486.13010819998453,486.13010819998453,486.3133625999908,486.3296069999924,488.1141251999943,None,1,,,,000014,001,2024-10-09_16h30.20.320,cpt_test,2024.2.2,60.15533309338619,2024-10-09 16h35.22.242464 -0600,
170,X,1,x,169,169,0,x,1,0.47414030000800267,0.1364256000088062,0,169,169,169,488.1282969999884,,,,,,,,,,,488.11428449998493,488.1282969999884,488.1282969999884,488.3114491000015,488.3278352000052,490.11246770000434,x,1,0.47414030000800267,0.1364256000088062,,000014,001,2024-10-09_16h30.20.320,cpt_test,2024.2.2,60.15533309338619,2024-10-09 16h35.22.242464 -0600,
171,L,0,None,170,170,0,None,1,,,0,170,170,170,490.12656279999646,,,,,,,,,,,490.112638599996,490.12656279999646,490.12656279999646,490.30945599998813,490.32596859999467,492.1112216000038,None,1,,,,000014,001,2024-10-09_16h30.20.320,cpt_test,2024.2.2,60.15533309338619,2024-10-09 16h35.22.242464 -0600,
172,E,0,None,171,171,0,None,1,,,0,171,171,171,492.12497790000634,,,,,,,,,,,492.11139549998916,492.12497790000634,492.12497790000634,492.30845209999825,492.3246402000077,494.10960229998454,None,1,,,,000014,001,2024-10-09_16h30.20.320,cpt_test,2024.2.2,60.15533309338619,2024-10-09 16h35.22.242464 -0600,
173,T,0,None,172,172,0,None,1,,,0,172,172,172,494.1237128000066,,,,,,,,,,,494.10976920000394,494.1237128000066,494.1237128000066,494.306676600012,494.3230596999929,496.1075279999932,None,1,,,,000014,001,2024-10-09_16h30.20.320,cpt_test,2024.2.2,60.15533309338619,2024-10-09 16h35.22.242464 -0600,
174,F,0,None,173,173,0,None,1,,,0,173,173,173,496.1216854999948,,,,,,,,,,,496.10769000000437,496.1216854999948,496.1216854999948,496.30481159998453,496.3213456000085,498.106246499985,None,1,,,,000014,001,2024-10-09_16h30.20.320,cpt_test,2024.2.2,60.15533309338619,2024-10-09 16h35.22.242464 -0600,
175,M,0,None,174,174,0,None,1,,,0,174,174,174,498.1202698999841,,,,,,,,,,,498.1064037999895,498.1202698999841,498.1202698999841,498.30366070001037,498.31970100000035,500.1043628999905,None,1,,,,000014,001,2024-10-09_16h30.20.320,cpt_test,2024.2.2,60.15533309338619,2024-10-09 16h35.22.242464 -0600,
176,Q,0,None,175,175,0,None,1,,,0,175,175,175,500.1184113000054,,,,,,,,,,,500.1045305999869,500.1184113000054,500.1184113000054,500.3018826000043,500.31811140000354,502.1027650999895,None,1,,,,000014,001,2024-10-09_16h30.20.320,cpt_test,2024.2.2,60.15533309338619,2024-10-09 16h35.22.242464 -0600,
177,M,0,None,176,176,0,None,1,,,0,176,176,176,502.1170858000114,,,,,,,,,,,502.10292279999703,502.1170858000114,502.1170858000114,502.300315600005,502.3166714000108,504.1007687000092,None,1,,,,000014,001,2024-10-09_16h30.20.320,cpt_test,2024.2.2,60.15533309338619,2024-10-09 16h35.22.242464 -0600,
178,X,1,x,177,177,0,x,1,0.3819507999869529,0.16390990000218153,0,177,177,177,504.1153078000061,,,,,,,,,,,504.10092669998994,504.1153078000061,504.1153078000061,504.31461569998646,504.31461569998646,506.11605049998616,x,1,0.3819507999869529,0.16390990000218153,,000014,001,2024-10-09_16h30.20.320,cpt_test,2024.2.2,60.15533309338619,2024-10-09 16h35.22.242464 -0600,
179,V,0,None,178,178,0,None,1,,,0,178,178,178,506.13022099999944,,,,,,,,,,,506.11620889999904,506.13022099999944,506.13022099999944,506.3135842999909,506.32986689999234,508.11430720001226,None,1,,,,000014,001,2024-10-09_16h30.20.320,cpt_test,2024.2.2,60.15533309338619,2024-10-09 16h35.22.242464 -0600,
180,M,0,None,179,179,0,None,1,,,0,179,179,179,508.12849040000583,,,,,,,,,,,508.114459000004,508.12849040000583,508.12849040000583,508.3119036999997,508.3282407000079,510.1131282999995,None,1,,,,000014,001,2024-10-09_16h30.20.320,cpt_test,2024.2.2,60.15533309338619,2024-10-09 16h35.22.242464 -0600,
181,P,0,None,180,180,0,None,1,,,0,180,180,180,510.126872599998,,,,,,,,,,,510.1132918999938,510.126872599998,510.126872599998,510.31009970000014,510.3266259999946,512.1113200999971,None,1,,,,000014,001,2024-10-09_16h30.20.320,cpt_test,2024.2.2,60.15533309338619,2024-10-09 16h35.22.242464 -0600,
182,K,0,None,181,181,0,None,1,,,0,181,181,181,512.1252192000102,,,,,,,,,,,512.1114942999848,512.1252192000102,512.1252192000102,512.3082900999871,512.3246783000068,514.1094801999861,None,1,,,,000014,001,2024-10-09_16h30.20.320,cpt_test,2024.2.2,60.15533309338619,2024-10-09 16h35.22.242464 -0600,
183,V,0,None,182,182,0,None,1,,,0,182,182,182,514.1238559999911,,,,,,,,,,,514.1096323000093,514.1238559999911,514.1238559999911,514.3070233000035,514.3234904999845,516.1076164999977,None,1,,,,000014,001,2024-10-09_16h30.20.320,cpt_test,2024.2.2,60.15533309338619,2024-10-09 16h35.22.242464 -0600,
184,G,0,None,183,183,0,None,1,,,0,183,183,183,516.1223109999846,,,,,,,,,,,516.107757699996,516.1223109999846,516.1223109999846,516.3050714999845,516.3216564999893,518.1062761000067,None,1,,,,000014,001,2024-10-09_16h30.20.320,cpt_test,2024.2.2,60.15533309338619,2024-10-09 16h35.22.242464 -0600,
185,L,0,None,184,184,0,None,1,,,0,184,184,184,518.1203276999877,,,,,,,,,,,518.1064280999999,518.1203276999877,518.1203276999877,518.3035234000126,518.3199243000126,520.1043231000076,None,1,,,,000014,001,2024-10-09_16h30.20.320,cpt_test,2024.2.2,60.15533309338619,2024-10-09 16h35.22.242464 -0600,
186,Q,0,None,185,185,0,None,1,,,0,185,185,185,520.1187478000065,,,,,,,,,,,520.1044847999874,520.1187478000065,520.1187478000065,520.3021099999896,520.3183545999927,522.1027454999858,None,1,,,,000014,001,2024-10-09_16h30.20.320,cpt_test,2024.2.2,60.15533309338619,2024-10-09 16h35.22.242464 -0600,
187,N,0,None,186,186,0,None,1,,,0,186,186,186,522.1173188000103,,,,,,,,,,,522.1028891000024,522.1173188000103,522.1173188000103,522.3004718000011,522.3166617999959,524.1011513999838,None,1,,,,000014,001,2024-10-09_16h30.20.320,cpt_test,2024.2.2,60.15533309338619,2024-10-09 16h35.22.242464 -0600,
188,K,0,None,187,187,0,None,1,,,0,187,187,187,524.1156246000028,,,,,,,,,,,524.1013048999885,524.1156246000028,524.1156246000028,524.3149384999997,524.3149384999997,526.1161011999939,None,1,,,,000014,001,2024-10-09_16h30.20.320,cpt_test,2024.2.2,60.15533309338619,2024-10-09 16h35.22.242464 -0600,
189,C,0,None,188,188,0,None,1,,,0,188,188,188,526.1306039000046,,,,,,,,,,,526.1162409000099,526.1306039000046,526.1306039000046,526.3137755999924,526.3300060000038,528.1147272000089,None,1,,,,000014,001,2024-10-09_16h30.20.320,cpt_test,2024.2.2,60.15533309338619,2024-10-09 16h35.22.242464 -0600,
190,Z,0,None,189,189,0,None,1,,,0,189,189,189,528.1286212999839,,,,,,,,,,,528.1148906000017,528.1286212999839,528.1286212999839,528.3120663999871,528.32840269999,530.1126185999892,None,1,,,,000014,001,2024-10-09_16h30.20.320,cpt_test,2024.2.2,60.15533309338619,2024-10-09 16h35.22.242464 -0600,
191,I,0,None,190,190,0,None,1,,,0,190,190,190,530.1271626999951,,,,,,,,,,,530.112761700002,530.1271626999951,530.1271626999951,530.3102329999965,530.3267703999882,532.1113092000014,None,1,,,,000014,001,2024-10-09_16h30.20.320,cpt_test,2024.2.2,60.15533309338619,2024-10-09 16h35.22.242464 -0600,
192,J,0,None,191,191,0,None,1,,,0,191,191,191,532.1254109999863,,,,,,,,,,,532.1114555000095,532.1254109999863,532.1254109999863,532.3087786000106,532.3249842000077,534.1099356999912,None,1,,,,000014,001,2024-10-09_16h30.20.320,cpt_test,2024.2.2,60.15533309338619,2024-10-09 16h35.22.242464 -0600,
193,X,1,x,192,192,0,x,1,0.6530458999914117,0.1897952000144869,0,192,192,192,534.123988700012,,,,,,,,,,,534.1101195999945,534.123988700012,534.123988700012,534.3069280000054,534.3234371999861,536.1090482999862,x,1,0.6530458999914117,0.1897952000144869,,000014,001,2024-10-09_16h30.20.320,cpt_test,2024.2.2,60.15533309338619,2024-10-09 16h35.22.242464 -0600,
194,E,0,None,193,193,0,None,1,,,0,193,193,193,536.1222857999965,,,,,,,,,,,536.1092688000062,536.1222857999965,536.1222857999965,536.3051519999863,536.321689000004,538.1072017000115,None,1,,,,000014,001,2024-10-09_16h30.20.320,cpt_test,2024.2.2,60.15533309338619,2024-10-09 16h35.22.242464 -0600,
195,X,1,x,194,194,0,x,1,0.5634705999982543,0.19527820000075735,0,194,194,194,538.1202809000097,,,,,,,,,,,538.1074192000087,538.1202809000097,538.1202809000097,538.3035896999936,538.3202786000038,540.1054790999915,x,1,0.5634705999982543,0.19527820000075735,,000014,001,2024-10-09_16h30.20.320,cpt_test,2024.2.2,60.15533309338619,2024-10-09 16h35.22.242464 -0600,
196,X,1,x,195,195,0,x,1,0.5766047999786679,0.1914911000058055,0,195,195,195,540.118742599996,,,,,,,,,,,540.1056867000007,540.118742599996,540.118742599996,540.3018843999889,540.3184862000053,542.1024753999955,x,1,0.5766047999786679,0.1914911000058055,,000014,001,2024-10-09_16h30.20.320,cpt_test,2024.2.2,60.15533309338619,2024-10-09 16h35.22.242464 -0600,
197,O,0,None,196,196,0,None,1,,,0,196,196,196,542.1169892000034,,,,,,,,,,,542.1026263000094,542.1169892000034,542.1169892000034,542.3001665000047,542.3164300000062,544.1033822000027,None,1,,,,000014,001,2024-10-09_16h30.20.320,cpt_test,2024.2.2,60.15533309338619,2024-10-09 16h35.22.242464 -0600,
198,X,1,x,197,197,0,x,1,0.41147439999622293,0.17277309999917634,0,197,197,197,544.1155260000087,,,,,,,,,,,544.1036296999955,544.1155260000087,544.1155260000087,544.3150406999921,544.3150406999921,546.1172312000126,x,1,0.41147439999622293,0.17277309999917634,,000014,001,2024-10-09_16h30.20.320,cpt_test,2024.2.2,60.15533309338619,2024-10-09 16h35.22.242464 -0600,
199,T,0,None,198,198,0,None,1,,,0,198,198,198,546.1305983999919,,,,,,,,,,,546.117434099986,546.1305983999919,546.1305983999919,546.3136612999951,546.3302155999991,548.114828299993,None,1,,,,000014,001,2024-10-09_16h30.20.320,cpt_test,2024.2.2,60.15533309338619,2024-10-09 16h35.22.242464 -0600,
200,X,1,x,199,199,0,x,1,0.42097710000234656,0.1634466999967117,0,199,199,199,548.1291209000046,,,,,,,,,,,548.114986200002,548.1291209000046,548.1291209000046,548.3124121000001,548.3284153999994,550.1132980000111,x,1,0.42097710000234656,0.1634466999967117,,000014,001,2024-10-09_16h30.20.320,cpt_test,2024.2.2,60.15533309338619,2024-10-09 16h35.22.242464 -0600,
201,L,0,None,200,200,0,None,1,,,0,200,200,200,550.1275147999986,,,,,,,,,,,550.1134569999995,550.1275147999986,550.1275147999986,550.3102829999989,550.3268613000109,552.1115104999917,None,1,,,,000014,001,2024-10-09_16h30.20.320,cpt_test,2024.2.2,60.15533309338619,2024-10-09 16h35.22.242464 -0600,
