Number,letra,target,correctas,thisN,thisTrialN,thisRepN,respuesta.keys,respuesta.corr,respuesta.rt,respuesta.duration,trials.thisRepN,trials.thisTrialN,trials.thisN,trials.thisIndex,thisRow.t,notes,Ojos_abiertos.started,Abiertos.started,Ojos_abiertos.stopped,Ojos_cerrados.started,Cerrados.started,alert.started,Cerrados.stopped,alert.stopped,Ojos_cerrados.stopped,Test.started,prueba.started,respuesta.started,text.started,prueba.stopped,text.stopped,Test.stopped,trials.respuesta.keys,trials.respuesta.corr,trials.respuesta.rt,trials.respuesta.duration,participant,session,date,expName,psychopyVersion,frameRate,expStart,
,,,,,,,,,,,,,,,,,0.008503599994583055,0.016618899986497127,90.00869149999926,,,,,,,,,,,,,,,,,,000002,001,2024-10-08_12h48.12.415,cpt_test,2024.2.2,60.16763907767768,2024-10-08 12h52.59.850942 -0600,
,,,,,,,,,,,,,,,,,,,,90.00984549999703,90.02213269998902,150.0060290666627,150.0226762999955,150.2851735999866,150.10472730000038,,,,,,,,,,,,000002,001,2024-10-08_12h48.12.415,cpt_test,2024.2.2,60.16763907767768,2024-10-08 12h52.59.850942 -0600,
1,A,0,None,0,0,0,None,1,,,0,0,0,0,150.2851735999866,,,,,,,,,,,150.1222725999978,150.2851735999866,150.2851735999866,150.29676029999973,150.48882869999215,152.1043001999933,152.10730269999476,None,1,,,000002,001,2024-10-08_12h48.12.415,cpt_test,2024.2.2,60.16763907767768,2024-10-08 12h52.59.850942 -0600,
2,R,0,None,1,1,0,None,1,,,0,1,1,1,152.1267158999981,,,,,,,,,,,152.10748509998666,152.1267158999981,152.1267158999981,152.30439689999912,152.33743779998622,,154.10547799999767,None,1,,,000002,001,2024-10-08_12h48.12.415,cpt_test,2024.2.2,60.16763907767768,2024-10-08 12h52.59.850942 -0600,
3,L,0,None,2,2,0,None,1,,,0,2,2,2,154.12410129999625,,,,,,,,,,,154.10564270000032,154.12410129999625,154.12410129999625,154.30279139999766,154.33590579999145,,156.1035009999905,None,1,,,000002,001,2024-10-08_12h48.12.415,cpt_test,2024.2.2,60.16763907767768,2024-10-08 12h52.59.850942 -0600,
4,X,1,x,3,3,0,x,1,0.32944419998966623,0.13959260001138318,0,3,3,3,156.11987369999406,,,,,,,,,,,156.1036666999862,156.11987369999406,156.11987369999406,156.30125549998775,156.3340043999924,,158.10163939998893,x,1,0.32944419998966623,0.13959260001138318,000002,001,2024-10-08_12h48.12.415,cpt_test,2024.2.2,60.16763907767768,2024-10-08 12h52.59.850942 -0600,
5,O,0,None,4,4,0,None,1,,,0,4,4,4,158.1178222999879,,,,,,,,,,,158.10179189998598,158.1178222999879,158.1178222999879,158.2994544999965,158.33234439999796,,160.10058119999303,None,1,,,000002,001,2024-10-08_12h48.12.415,cpt_test,2024.2.2,60.16763907767768,2024-10-08 12h52.59.850942 -0600,
6,G,0,None,5,5,0,None,1,,,0,5,5,5,160.11741459999757,,,,,,,,,,,160.10076309999567,160.11741459999757,160.11741459999757,160.31464479998976,160.33058529999107,,162.1151925999875,None,1,,,000002,001,2024-10-08_12h48.12.415,cpt_test,2024.2.2,60.16763907767768,2024-10-08 12h52.59.850942 -0600,
7,P,0,None,6,6,0,None,1,,,0,6,6,6,162.13104779999412,,,,,,,,,,,162.11534609999217,162.13104779999412,162.13104779999412,162.3127339999919,162.34591449999425,,164.11344479999389,None,1,,,000002,001,2024-10-08_12h48.12.415,cpt_test,2024.2.2,60.16763907767768,2024-10-08 12h52.59.850942 -0600,
8,X,1,x,7,7,0,x,1,0.3079450000077486,0.17319129999668803,0,7,7,7,164.12771449999127,,,,,,,,,,,164.1135959999956,164.12771449999127,164.12771449999127,164.31096299999626,164.3275694999902,,166.1153137999936,x,1,0.3079450000077486,0.17319129999668803,000002,001,2024-10-08_12h48.12.415,cpt_test,2024.2.2,60.16763907767768,2024-10-08 12h52.59.850942 -0600,
9,X,1,x,8,8,0,x,1,0.4026010999950813,0.16857240001263563,0,8,8,8,166.12622869999905,,,,,,,,,,,166.11552649999794,166.12622869999905,166.12622869999905,166.3096799999912,166.32584669999778,,168.1128112999868,x,1,0.4026010999950813,0.16857240001263563,000002,001,2024-10-08_12h48.12.415,cpt_test,2024.2.2,60.16763907767768,2024-10-08 12h52.59.850942 -0600,
10,Z,0,None,9,9,0,None,1,,,0,9,9,9,168.131590399993,,,,,,,,,,,168.11309299999266,168.131590399993,168.131590399993,168.30773719999706,168.34063909998804,,170.1084996999998,None,1,,,000002,001,2024-10-08_12h48.12.415,cpt_test,2024.2.2,60.16763907767768,2024-10-08 12h52.59.850942 -0600,
11,I,0,None,10,10,0,None,1,,,0,10,10,10,170.12456589999783,,,,,,,,,,,170.10864789999323,170.12456589999783,170.12456589999783,170.30603309998696,170.3391821999976,,172.10707659999025,None,1,,,000002,001,2024-10-08_12h48.12.415,cpt_test,2024.2.2,60.16763907767768,2024-10-08 12h52.59.850942 -0600,
12,D,0,None,11,11,0,None,1,,,0,11,11,11,172.1249264999933,,,,,,,,,,,172.10724189999746,172.1249264999933,172.1249264999933,172.30462729999272,172.33763049999834,,174.1053450999898,None,1,,,000002,001,2024-10-08_12h48.12.415,cpt_test,2024.2.2,60.16763907767768,2024-10-08 12h52.59.850942 -0600,
13,X,1,x,12,12,0,x,1,0.2941214000020409,0.13571919999958482,0,12,12,12,174.12001159999636,,,,,,,,,,,174.10551080000005,174.12001159999636,174.12001159999636,174.30315759999212,174.3195274999889,,176.10372139999527,x,1,0.2941214000020409,0.13571919999958482,000002,001,2024-10-08_12h48.12.415,cpt_test,2024.2.2,60.16763907767768,2024-10-08 12h52.59.850942 -0600,
14,Y,0,None,13,13,0,None,1,,,0,13,13,13,176.12219879998884,,,,,,,,,,,176.10389769999892,176.12219879998884,176.12219879998884,176.30123109999113,176.33415439999953,,178.1020453999954,None,1,,,000002,001,2024-10-08_12h48.12.415,cpt_test,2024.2.2,60.16763907767768,2024-10-08 12h52.59.850942 -0600,
15,X,1,x,14,14,0,x,1,0.35150309999880847,0.1450227999885101,0,14,14,14,178.11637159998645,,,,,,,,,,,178.10219959999085,178.11637159998645,178.11637159998645,178.31592199999432,178.31592199999432,,180.101096399987,x,1,0.35150309999880847,0.1450227999885101,000002,001,2024-10-08_12h48.12.415,cpt_test,2024.2.2,60.16763907767768,2024-10-08 12h52.59.850942 -0600,
16,X,1,x,15,15,0,x,1,0.32716529999743216,0.1311688999994658,0,15,15,15,180.11489419999998,,,,,,,,,,,180.10129669999878,180.11489419999998,180.11489419999998,180.31432429999404,180.31432429999404,,182.11605819998658,x,1,0.32716529999743216,0.1311688999994658,000002,001,2024-10-08_12h48.12.415,cpt_test,2024.2.2,60.16763907767768,2024-10-08 12h52.59.850942 -0600,
17,A,0,None,16,16,0,None,1,,,0,16,16,16,182.1298528999905,,,,,,,,,,,182.1163174999965,182.1298528999905,182.1298528999905,182.3129118999932,182.32909699999436,,184.11456439999165,None,1,,,000002,001,2024-10-08_12h48.12.415,cpt_test,2024.2.2,60.16763907767768,2024-10-08 12h52.59.850942 -0600,
18,J,0,None,17,17,0,None,1,,,0,17,17,17,184.1336650999874,,,,,,,,,,,184.11475609999616,184.1336650999874,184.1336650999874,184.31113489999552,184.34448999998858,,186.11363949999213,None,1,,,000002,001,2024-10-08_12h48.12.415,cpt_test,2024.2.2,60.16763907767768,2024-10-08 12h52.59.850942 -0600,
19,G,0,None,18,18,0,None,1,,,0,18,18,18,186.12633279999136,,,,,,,,,,,186.11388639999495,186.12633279999136,186.12633279999136,186.30965419999848,186.32607239999925,,188.11064189999888,None,1,,,000002,001,2024-10-08_12h48.12.415,cpt_test,2024.2.2,60.16763907767768,2024-10-08 12h52.59.850942 -0600,
20,X,1,x,19,19,0,x,1,0.31692019999900367,0.1314115999994101,0,19,19,19,188.12502689998655,,,,,,,,,,,188.11081189999823,188.12502689998655,188.12502689998655,188.30794349999633,188.3244016999961,,190.10949999999139,x,1,0.31692019999900367,0.1314115999994101,000002,001,2024-10-08_12h48.12.415,cpt_test,2024.2.2,60.16763907767768,2024-10-08 12h52.59.850942 -0600,
21,T,0,None,20,20,0,None,1,,,0,20,20,20,190.1288257999986,,,,,,,,,,,190.10969809998642,190.1288257999986,190.1288257999986,190.30639739999606,190.33940009999787,,192.10838799999328,None,1,,,000002,001,2024-10-08_12h48.12.415,cpt_test,2024.2.2,60.16763907767768,2024-10-08 12h52.59.850942 -0600,
22,S,0,None,21,21,0,None,1,,,0,21,21,21,192.12948169998708,,,,,,,,,,,192.10860779999348,192.12948169998708,192.12948169998708,192.304785299988,192.33788459999778,,194.10497829999076,None,1,,,000002,001,2024-10-08_12h48.12.415,cpt_test,2024.2.2,60.16763907767768,2024-10-08 12h52.59.850942 -0600,
23,X,1,x,22,22,0,x,1,0.2910686999966856,0.1306858000025386,0,22,22,22,194.11982209999405,,,,,,,,,,,194.10513009999704,194.11982209999405,194.11982209999405,194.30313449999085,194.3192307999998,,196.10438129999966,x,1,0.2910686999966856,0.1306858000025386,000002,001,2024-10-08_12h48.12.415,cpt_test,2024.2.2,60.16763907767768,2024-10-08 12h52.59.850942 -0600,
24,S,0,None,23,23,0,None,1,,,0,23,23,23,196.11834069999168,,,,,,,,,,,196.10456399999384,196.11834069999168,196.11834069999168,196.30145749999792,196.31790979999641,,198.10294659998908,None,1,,,000002,001,2024-10-08_12h48.12.415,cpt_test,2024.2.2,60.16763907767768,2024-10-08 12h52.59.850942 -0600,
25,G,0,None,24,24,0,None,1,,,0,24,24,24,198.11642619999475,,,,,,,,,,,198.10314589999325,198.11642619999475,198.11642619999475,198.29986429998826,198.3159514999861,,200.10150999999314,None,1,,,000002,001,2024-10-08_12h48.12.415,cpt_test,2024.2.2,60.16763907767768,2024-10-08 12h52.59.850942 -0600,
26,O,0,None,25,25,0,None,1,,,0,25,25,25,200.11505559999205,,,,,,,,,,,200.10170059998927,200.11505559999205,200.11505559999205,200.31449159998738,200.31449159998738,,202.1006561999966,None,1,,,000002,001,2024-10-08_12h48.12.415,cpt_test,2024.2.2,60.16763907767768,2024-10-08 12h52.59.850942 -0600,
27,P,0,None,26,26,0,None,1,,,0,26,26,26,202.1134493999998,,,,,,,,,,,202.10088889999315,202.1134493999998,202.1134493999998,202.31283709999116,202.31283709999116,,204.11506189999636,None,1,,,000002,001,2024-10-08_12h48.12.415,cpt_test,2024.2.2,60.16763907767768,2024-10-08 12h52.59.850942 -0600,
28,Z,0,None,27,27,0,None,1,,,0,27,27,27,204.12821689998964,,,,,,,,,,,204.1152746999869,204.12821689998964,204.12821689998964,204.31140049999522,204.3279540999938,,206.1131958999904,None,1,,,000002,001,2024-10-08_12h48.12.415,cpt_test,2024.2.2,60.16763907767768,2024-10-08 12h52.59.850942 -0600,
29,X,1,x,28,28,0,x,1,0.2989014000049792,0.1393680999899516,0,28,28,28,206.12661039999512,,,,,,,,,,,206.11340599998948,206.12661039999512,206.12661039999512,206.30989729998691,206.32634589998634,,208.11190079999506,x,1,0.2989014000049792,0.1393680999899516,000002,001,2024-10-08_12h48.12.415,cpt_test,2024.2.2,60.16763907767768,2024-10-08 12h52.59.850942 -0600,
30,I,0,None,29,29,0,None,1,,,0,29,29,29,208.12491719999525,,,,,,,,,,,208.11212609999347,208.12491719999525,208.12491719999525,208.30804079999507,208.32470019999892,,210.1091488999955,None,1,,,000002,001,2024-10-08_12h48.12.415,cpt_test,2024.2.2,60.16763907767768,2024-10-08 12h52.59.850942 -0600,
31,F,0,None,30,30,0,None,1,,,0,30,30,30,210.12809389999893,,,,,,,,,,,210.10930639998696,210.12809389999893,210.12809389999893,210.30660849998822,210.33941489999415,,212.1081889999914,None,1,,,000002,001,2024-10-08_12h48.12.415,cpt_test,2024.2.2,60.16763907767768,2024-10-08 12h52.59.850942 -0600,
32,M,0,None,31,31,0,None,1,,,0,31,31,31,212.1284886999929,,,,,,,,,,,212.10837029998947,212.1284886999929,212.1284886999929,212.30520579998847,212.33779419999337,,214.1060620999924,None,1,,,000002,001,2024-10-08_12h48.12.415,cpt_test,2024.2.2,60.16763907767768,2024-10-08 12h52.59.850942 -0600,
33,T,0,None,32,32,0,None,1,,,0,32,32,32,214.12024859999656,,,,,,,,,,,214.10625259998778,214.12024859999656,214.12024859999656,214.30314619999263,214.3197067000001,,216.10426369999186,None,1,,,000002,001,2024-10-08_12h48.12.415,cpt_test,2024.2.2,60.16763907767768,2024-10-08 12h52.59.850942 -0600,
34,A,0,None,33,33,0,None,1,,,0,33,33,33,216.1184174999944,,,,,,,,,,,216.10442559998774,216.1184174999944,216.1184174999944,216.30183649998799,216.31793449999532,,218.10311399999773,None,1,,,000002,001,2024-10-08_12h48.12.415,cpt_test,2024.2.2,60.16763907767768,2024-10-08 12h52.59.850942 -0600,
35,E,0,None,34,34,0,None,1,,,0,34,34,34,218.12188329998753,,,,,,,,,,,218.1033066999953,218.12188329998753,218.12188329998753,218.29975219999324,218.33307809999678,,220.10168999999587,None,1,,,000002,001,2024-10-08_12h48.12.415,cpt_test,2024.2.2,60.16763907767768,2024-10-08 12h52.59.850942 -0600,
36,X,1,x,35,35,0,x,1,0.3840028999984497,0.12684850000368897,0,35,35,35,220.11498799998662,,,,,,,,,,,220.10188699999708,220.11498799998662,220.11498799998662,220.31511449998652,220.31511449998652,,222.116328899996,x,1,0.3840028999984497,0.12684850000368897,000002,001,2024-10-08_12h48.12.415,cpt_test,2024.2.2,60.16763907767768,2024-10-08 12h52.59.850942 -0600,
37,A,0,None,36,36,0,None,1,,,0,36,36,36,222.1301742999931,,,,,,,,,,,222.1165178999945,222.1301742999931,222.1301742999931,222.31317569999374,222.32966159998614,,224.1147873999871,None,1,,,000002,001,2024-10-08_12h48.12.415,cpt_test,2024.2.2,60.16763907767768,2024-10-08 12h52.59.850942 -0600,
38,S,0,None,37,37,0,None,1,,,0,37,37,37,224.1285527,,,,,,,,,,,224.11497129999043,224.1285527,224.1285527,224.31158639999921,224.32832619998953,,226.11233429999265,None,1,,,000002,001,2024-10-08_12h48.12.415,cpt_test,2024.2.2,60.16763907767768,2024-10-08 12h52.59.850942 -0600,
39,U,0,None,38,38,0,None,1,,,0,38,38,38,226.13097469999047,,,,,,,,,,,226.11248019999766,226.13097469999047,226.13097469999047,226.3098861999897,226.34304139998858,,228.1116989999864,None,1,,,000002,001,2024-10-08_12h48.12.415,cpt_test,2024.2.2,60.16763907767768,2024-10-08 12h52.59.850942 -0600,
40,U,0,None,39,39,0,None,1,,,0,39,39,39,228.12534289999167,,,,,,,,,,,228.11192609999853,228.12534289999167,228.12534289999167,228.30854119999276,228.3248118999909,,230.10877099999925,None,1,,,000002,001,2024-10-08_12h48.12.415,cpt_test,2024.2.2,60.16763907767768,2024-10-08 12h52.59.850942 -0600,
41,Q,0,None,40,40,0,None,1,,,0,40,40,40,230.12681679999514,,,,,,,,,,,230.10891479998827,230.12681679999514,230.12681679999514,230.30681819999882,230.33977289999893,,232.10809809999773,None,1,,,000002,001,2024-10-08_12h48.12.415,cpt_test,2024.2.2,60.16763907767768,2024-10-08 12h52.59.850942 -0600,
42,E,0,None,41,41,0,None,1,,,0,41,41,41,232.12196959998982,,,,,,,,,,,232.10828789998777,232.12196959998982,232.12196959998982,232.304951299986,232.32149149999896,,234.10652209998807,None,1,,,000002,001,2024-10-08_12h48.12.415,cpt_test,2024.2.2,60.16763907767768,2024-10-08 12h52.59.850942 -0600,
43,B,0,None,42,42,0,None,1,,,0,42,42,42,234.1255453999911,,,,,,,,,,,234.10671209999418,234.1255453999911,234.1255453999911,234.30391959998815,234.33623769998667,,236.10491529999126,None,1,,,000002,001,2024-10-08_12h48.12.415,cpt_test,2024.2.2,60.16763907767768,2024-10-08 12h52.59.850942 -0600,
44,O,0,None,43,43,0,None,1,,,0,43,43,43,236.11872579999908,,,,,,,,,,,236.10509999998612,236.11872579999908,236.11872579999908,236.3019440999924,236.3183338999952,,238.10367439998663,None,1,,,000002,001,2024-10-08_12h48.12.415,cpt_test,2024.2.2,60.16763907767768,2024-10-08 12h52.59.850942 -0600,
45,E,0,None,44,44,0,None,1,,,0,44,44,44,238.11705039998924,,,,,,,,,,,238.10389689999283,238.11705039998924,238.11705039998924,238.29997159999039,238.3165752999921,,240.10171429999173,None,1,,,000002,001,2024-10-08_12h48.12.415,cpt_test,2024.2.2,60.16763907767768,2024-10-08 12h52.59.850942 -0600,
46,F,0,None,45,45,0,None,1,,,0,45,45,45,240.1153423999931,,,,,,,,,,,240.10190229999716,240.1153423999931,240.1153423999931,240.31485109998903,240.31485109998903,,242.11705589998746,None,1,,,000002,001,2024-10-08_12h48.12.415,cpt_test,2024.2.2,60.16763907767768,2024-10-08 12h52.59.850942 -0600,
47,V,0,None,46,46,0,None,1,,,0,46,46,46,242.13778499999898,,,,,,,,,,,242.11725739999383,242.13778499999898,242.13778499999898,242.31378049998602,242.3463022999931,,244.11483849999786,None,1,,,000002,001,2024-10-08_12h48.12.415,cpt_test,2024.2.2,60.16763907767768,2024-10-08 12h52.59.850942 -0600,
48,X,1,x,47,47,0,x,1,0.3676463000010699,0.15797340001154225,0,47,47,47,244.1287241999962,,,,,,,,,,,244.11501639999915,244.1287241999962,244.1287241999962,244.31198049998784,244.32827039998665,,246.11301959998673,x,1,0.3676463000010699,0.15797340001154225,000002,001,2024-10-08_12h48.12.415,cpt_test,2024.2.2,60.16763907767768,2024-10-08 12h52.59.850942 -0600,
49,X,1,x,48,48,0,x,1,0.3662821000034455,0.13526809999893885,0,48,48,48,246.12702989998797,,,,,,,,,,,246.1132004999963,246.12702989998797,246.12702989998797,246.31034409999847,246.32657529998687,,248.11115019999852,x,1,0.3662821000034455,0.13526809999893885,000002,001,2024-10-08_12h48.12.415,cpt_test,2024.2.2,60.16763907767768,2024-10-08 12h52.59.850942 -0600,
50,C,0,None,49,49,0,None,1,,,0,49,49,49,248.1289865999861,,,,,,,,,,,248.11131459999888,248.1289865999861,248.1289865999861,248.30875159999414,248.34164139999484,,250.10991929999727,None,1,,,000002,001,2024-10-08_12h48.12.415,cpt_test,2024.2.2,60.16763907767768,2024-10-08 12h52.59.850942 -0600,
51,M,0,None,50,50,0,None,1,,,0,50,50,50,250.1237770999869,,,,,,,,,,,250.110073799995,250.1237770999869,250.1237770999869,250.307166899991,250.32330239999283,,252.10839289998694,None,1,,,000002,001,2024-10-08_12h48.12.415,cpt_test,2024.2.2,60.16763907767768,2024-10-08 12h52.59.850942 -0600,
52,D,0,None,51,51,0,None,1,,,0,51,51,51,252.1222381999978,,,,,,,,,,,252.10856989999593,252.1222381999978,252.1222381999978,252.30535059999966,252.32182079998893,,254.10597589999088,None,1,,,000002,001,2024-10-08_12h48.12.415,cpt_test,2024.2.2,60.16763907767768,2024-10-08 12h52.59.850942 -0600,
53,X,1,x,52,52,0,x,1,0.38364590000128374,0.14362879999680445,0,52,52,52,254.1205947999988,,,,,,,,,,,254.10612019999826,254.1205947999988,254.1205947999988,254.30380139999033,254.32008539998787,,256.10453879999113,x,1,0.38364590000128374,0.14362879999680445,000002,001,2024-10-08_12h48.12.415,cpt_test,2024.2.2,60.16763907767768,2024-10-08 12h52.59.850942 -0600,
54,K,0,None,53,53,0,None,1,,,0,53,53,53,256.1226391999953,,,,,,,,,,,256.1046964999987,256.1226391999953,256.1226391999953,256.3020625999925,256.33509709998907,,258.1042624999973,None,1,,,000002,001,2024-10-08_12h48.12.415,cpt_test,2024.2.2,60.16763907767768,2024-10-08 12h52.59.850942 -0600,
55,X,1,x,54,54,0,x,1,0.33393700000306126,0.1457170999929076,0,54,54,54,258.1169874999905,,,,,,,,,,,258.10449439998774,258.1169874999905,258.1169874999905,258.3004375999881,258.316559999992,,260.10111089999555,x,1,0.33393700000306126,0.1457170999929076,000002,001,2024-10-08_12h48.12.415,cpt_test,2024.2.2,60.16763907767768,2024-10-08 12h52.59.850942 -0600,
56,N,0,None,55,55,0,None,1,,,0,55,55,55,260.11976079999295,,,,,,,,,,,260.101278999995,260.11976079999295,260.11976079999295,260.3155713999877,260.33178029999544,,262.10059329999785,None,1,,,000002,001,2024-10-08_12h48.12.415,cpt_test,2024.2.2,60.16763907767768,2024-10-08 12h52.59.850942 -0600,
57,M,0,None,56,56,0,None,1,,,0,56,56,56,262.1139264999947,,,,,,,,,,,262.1008019000001,262.1139264999947,262.1139264999947,262.3133416999917,262.3133416999917,,264.1154258999886,None,1,,,000002,001,2024-10-08_12h48.12.415,cpt_test,2024.2.2,60.16763907767768,2024-10-08 12h52.59.850942 -0600,
58,X,1,x,57,57,0,x,1,0.344527699999162,0.1362200000003213,0,57,57,57,264.12886779999826,,,,,,,,,,,264.11561079999956,264.12886779999826,264.12886779999826,264.3120976999926,264.3282748999918,,266.1137083999929,x,1,0.344527699999162,0.1362200000003213,000002,001,2024-10-08_12h48.12.415,cpt_test,2024.2.2,60.16763907767768,2024-10-08 12h52.59.850942 -0600,
59,F,0,None,58,58,0,None,1,,,0,58,58,58,266.12732689999393,,,,,,,,,,,266.1139003999997,266.12732689999393,266.12732689999393,266.3104321999999,266.3265762999945,,268.11156109999865,None,1,,,000002,001,2024-10-08_12h48.12.415,cpt_test,2024.2.2,60.16763907767768,2024-10-08 12h52.59.850942 -0600,
60,A,0,None,59,59,0,None,1,,,0,59,59,59,268.12554309998814,,,,,,,,,,,268.1117282999912,268.12554309998814,268.12554309998814,268.3088662999944,268.3252504999982,,270.10969149999437,None,1,,,000002,001,2024-10-08_12h48.12.415,cpt_test,2024.2.2,60.16763907767768,2024-10-08 12h52.59.850942 -0600,
61,X,1,x,60,60,0,x,1,0.26332779999938793,0.13931959999899846,0,60,60,60,270.1240296999895,,,,,,,,,,,270.1098643999867,270.1240296999895,270.1240296999895,270.3070333999931,270.32360589999007,,272.10868899998604,x,1,0.26332779999938793,0.13931959999899846,000002,001,2024-10-08_12h48.12.415,cpt_test,2024.2.2,60.16763907767768,2024-10-08 12h52.59.850942 -0600,
62,V,0,None,61,61,0,None,1,,,0,61,61,61,272.1224738999881,,,,,,,,,,,272.108886099988,272.1224738999881,272.1224738999881,272.3055616999918,272.3218710999936,,274.10704049999185,None,1,,,000002,001,2024-10-08_12h48.12.415,cpt_test,2024.2.2,60.16763907767768,2024-10-08 12h52.59.850942 -0600,
63,U,0,None,62,62,0,None,1,,,0,62,62,62,274.12077999999747,,,,,,,,,,,274.10722169998917,274.12077999999747,274.12077999999747,274.3039226999972,274.32004069999675,,276.10472129999835,None,1,,,000002,001,2024-10-08_12h48.12.415,cpt_test,2024.2.2,60.16763907767768,2024-10-08 12h52.59.850942 -0600,
64,M,0,None,63,63,0,None,1,,,0,63,63,63,276.11925819999306,,,,,,,,,,,276.1048742999992,276.11925819999306,276.11925819999306,276.3021840000001,276.3184263000003,,278.1032175,None,1,,,000002,001,2024-10-08_12h48.12.415,cpt_test,2024.2.2,60.16763907767768,2024-10-08 12h52.59.850942 -0600,
65,X,1,x,64,64,0,x,1,0.2989228000078583,0.1244594000017969,0,64,64,64,278.1174101999932,,,,,,,,,,,278.10339159998694,278.1174101999932,278.1174101999932,278.3005661999923,278.3170581999875,,280.10124409999116,x,1,0.2989228000078583,0.1244594000017969,000002,001,2024-10-08_12h48.12.415,cpt_test,2024.2.2,60.16763907767768,2024-10-08 12h52.59.850942 -0600,
66,A,0,None,65,65,0,None,1,,,0,65,65,65,280.11597999998776,,,,,,,,,,,280.1014015999972,280.11597999998776,280.11597999998776,280.3153508999967,280.3153508999967,,282.1170943999896,None,1,,,000002,001,2024-10-08_12h48.12.415,cpt_test,2024.2.2,60.16763907767768,2024-10-08 12h52.59.850942 -0600,
67,N,0,None,66,66,0,None,1,,,0,66,66,66,282.1305466999911,,,,,,,,,,,282.11728619999485,282.1305466999911,282.1305466999911,282.314014699994,282.3301106999861,,284.11538659999496,None,1,,,000002,001,2024-10-08_12h48.12.415,cpt_test,2024.2.2,60.16763907767768,2024-10-08 12h52.59.850942 -0600,
68,H,0,None,67,67,0,None,1,,,0,67,67,67,284.13495399999374,,,,,,,,,,,284.1155800999986,284.13495399999374,284.13495399999374,284.3123160999967,284.345069899995,,286.1128829999943,None,1,,,000002,001,2024-10-08_12h48.12.415,cpt_test,2024.2.2,60.16763907767768,2024-10-08 12h52.59.850942 -0600,
69,A,0,None,68,68,0,None,1,,,0,68,68,68,286.12765569999465,,,,,,,,,,,286.1130211999989,286.12765569999465,286.12765569999465,286.31044859999383,286.3270727999916,,288.11182179999014,None,1,,,000002,001,2024-10-08_12h48.12.415,cpt_test,2024.2.2,60.16763907767768,2024-10-08 12h52.59.850942 -0600,
70,X,1,x,69,69,0,x,1,0.2574719999975059,0.1402760000055423,0,69,69,69,288.12569399998756,,,,,,,,,,,288.11197299999185,288.12569399998756,288.12569399998756,288.3088112999976,288.32541369998944,,290.11005259999365,x,1,0.2574719999975059,0.1402760000055423,000002,001,2024-10-08_12h48.12.415,cpt_test,2024.2.2,60.16763907767768,2024-10-08 12h52.59.850942 -0600,
71,F,0,None,70,70,0,None,1,,,0,70,70,70,290.12429979999433,,,,,,,,,,,290.1102153999964,290.12429979999433,290.12429979999433,290.30718779999006,290.3238028999913,,292.10827349999454,None,1,,,000002,001,2024-10-08_12h48.12.415,cpt_test,2024.2.2,60.16763907767768,2024-10-08 12h52.59.850942 -0600,
72,N,0,None,71,71,0,None,1,,,0,71,71,71,292.12249149999116,,,,,,,,,,,292.1084416999947,292.12249149999116,292.12249149999116,292.30581989999337,292.321999199994,,294.10742509999545,None,1,,,000002,001,2024-10-08_12h48.12.415,cpt_test,2024.2.2,60.16763907767768,2024-10-08 12h52.59.850942 -0600,
73,K,0,None,72,72,0,None,1,,,0,72,72,72,294.1206977999973,,,,,,,,,,,294.10762519999116,294.1206977999973,294.1206977999973,294.30372329999227,294.32033599998977,,296.10583380000025,None,1,,,000002,001,2024-10-08_12h48.12.415,cpt_test,2024.2.2,60.16763907767768,2024-10-08 12h52.59.850942 -0600,
74,Y,0,None,73,73,0,None,1,,,0,73,73,73,296.11926069999754,,,,,,,,,,,296.1059740999917,296.11926069999754,296.11926069999754,296.30240989998856,296.3187993999891,,298.1037193999946,None,1,,,000002,001,2024-10-08_12h48.12.415,cpt_test,2024.2.2,60.16763907767768,2024-10-08 12h52.59.850942 -0600,
75,Y,0,None,74,74,0,None,1,,,0,74,74,74,298.11750019999454,,,,,,,,,,,298.1039061999909,298.11750019999454,298.11750019999454,298.3007813000004,298.3169043999951,,300.10140949999914,None,1,,,000002,001,2024-10-08_12h48.12.415,cpt_test,2024.2.2,60.16763907767768,2024-10-08 12h52.59.850942 -0600,
76,R,0,None,75,75,0,None,1,,,0,75,75,75,300.11594109999714,,,,,,,,,,,300.1015602999978,300.11594109999714,300.11594109999714,300.3154973999917,300.3154973999917,,302.1011983999924,None,1,,,000002,001,2024-10-08_12h48.12.415,cpt_test,2024.2.2,60.16763907767768,2024-10-08 12h52.59.850942 -0600,
77,X,1,x,76,76,0,x,1,0.40123570000287145,0.1770640999893658,0,76,76,76,302.1142380999954,,,,,,,,,,,302.1014148999966,302.1142380999954,302.1142380999954,302.3136233999976,302.3136233999976,,304.11535149998963,x,1,0.40123570000287145,0.1770640999893658,000002,001,2024-10-08_12h48.12.415,cpt_test,2024.2.2,60.16763907767768,2024-10-08 12h52.59.850942 -0600,
78,R,0,None,77,77,0,None,1,,,0,77,77,77,304.1293921999895,,,,,,,,,,,304.11553069998627,304.1293921999895,304.1293921999895,304.31237580000015,304.32878619999974,,306.1137624999974,None,1,,,000002,001,2024-10-08_12h48.12.415,cpt_test,2024.2.2,60.16763907767768,2024-10-08 12h52.59.850942 -0600,
79,F,0,None,78,78,0,None,1,,,0,78,78,78,306.12760989999515,,,,,,,,,,,306.1139547999919,306.12760989999515,306.12760989999515,306.3104932999995,306.32730719998654,,308.11227769999823,None,1,,,000002,001,2024-10-08_12h48.12.415,cpt_test,2024.2.2,60.16763907767768,2024-10-08 12h52.59.850942 -0600,
80,K,0,None,79,79,0,None,1,,,0,79,79,79,308.12600259999454,,,,,,,,,,,308.1124659999914,308.12600259999454,308.12600259999454,308.3089364999905,308.32548659999156,,310.10956279998936,None,1,,,000002,001,2024-10-08_12h48.12.415,cpt_test,2024.2.2,60.16763907767768,2024-10-08 12h52.59.850942 -0600,
81,O,0,None,80,80,0,None,1,,,0,80,80,80,310.12473299998965,,,,,,,,,,,310.1097016999993,310.12473299998965,310.12473299998965,310.30785439998726,310.32392559999425,,312.1090161999891,None,1,,,000002,001,2024-10-08_12h48.12.415,cpt_test,2024.2.2,60.16763907767768,2024-10-08 12h52.59.850942 -0600,
82,F,0,None,81,81,0,None,1,,,0,81,81,81,312.1227921999962,,,,,,,,,,,312.1092173999932,312.1227921999962,312.1227921999962,312.3058172999881,312.3220683999971,,314.1072692999878,None,1,,,000002,001,2024-10-08_12h48.12.415,cpt_test,2024.2.2,60.16763907767768,2024-10-08 12h52.59.850942 -0600,
83,F,0,None,82,82,0,None,1,,,0,82,82,82,314.1210613000003,,,,,,,,,,,314.1074576999963,314.1210613000003,314.1210613000003,314.30396039999323,314.32043119998707,,316.10585100000026,None,1,,,000002,001,2024-10-08_12h48.12.415,cpt_test,2024.2.2,60.16763907767768,2024-10-08 12h52.59.850942 -0600,
84,W,0,None,83,83,0,None,1,,,0,83,83,83,316.1278881999897,,,,,,,,,,,316.10603169999376,316.1278881999897,316.1278881999897,316.3027008999925,316.33543279999867,,318.1045787999901,None,1,,,000002,001,2024-10-08_12h48.12.415,cpt_test,2024.2.2,60.16763907767768,2024-10-08 12h52.59.850942 -0600,
85,X,1,x,84,84,0,x,1,0.34871380000549834,0.17640830000163987,0,84,84,84,318.1175857999915,,,,,,,,,,,318.1047858999955,318.1175857999915,318.1175857999915,318.3009136999899,318.31730529999186,,320.1026248999988,x,1,0.34871380000549834,0.17640830000163987,000002,001,2024-10-08_12h48.12.415,cpt_test,2024.2.2,60.16763907767768,2024-10-08 12h52.59.850942 -0600,
86,J,0,None,85,85,0,None,1,,,0,85,85,85,320.1161187999969,,,,,,,,,,,320.10283259999414,320.1161187999969,320.1161187999969,320.31560859999445,320.31560859999445,,322.1010045000003,None,1,,,000002,001,2024-10-08_12h48.12.415,cpt_test,2024.2.2,60.16763907767768,2024-10-08 12h52.59.850942 -0600,
87,N,0,None,86,86,0,None,1,,,0,86,86,86,322.11437489998934,,,,,,,,,,,322.1011978999886,322.11437489998934,322.11437489998934,322.3139494999923,322.3139494999923,,324.1160827999993,None,1,,,000002,001,2024-10-08_12h48.12.415,cpt_test,2024.2.2,60.16763907767768,2024-10-08 12h52.59.850942 -0600,
88,X,1,x,87,87,0,x,1,0.35537980000663083,0.14802409999538213,0,87,87,87,324.1295436999935,,,,,,,,,,,324.1162897999893,324.1295436999935,324.1295436999935,324.31293619998905,324.32891409999866,,326.1143548999971,x,1,0.35537980000663083,0.14802409999538213,000002,001,2024-10-08_12h48.12.415,cpt_test,2024.2.2,60.16763907767768,2024-10-08 12h52.59.850942 -0600,
89,T,0,None,88,88,0,None,1,,,0,88,88,88,326.12788609998825,,,,,,,,,,,326.11455639998894,326.12788609998825,326.12788609998825,326.31080649999785,326.3274299999903,,328.1119753999956,None,1,,,000002,001,2024-10-08_12h48.12.415,cpt_test,2024.2.2,60.16763907767768,2024-10-08 12h52.59.850942 -0600,
90,I,0,None,89,89,0,None,1,,,0,89,89,89,328.12590849999106,,,,,,,,,,,328.11213229999703,328.12590849999106,328.12590849999106,328.3090496999939,328.3256912999932,,330.11049829999683,None,1,,,000002,001,2024-10-08_12h48.12.415,cpt_test,2024.2.2,60.16763907767768,2024-10-08 12h52.59.850942 -0600,
91,P,0,None,90,90,0,None,1,,,0,90,90,90,330.124539299999,,,,,,,,,,,330.11066349998873,330.124539299999,330.124539299999,330.3074263999879,330.3240475999919,,332.1084649999975,None,1,,,000002,001,2024-10-08_12h48.12.415,cpt_test,2024.2.2,60.16763907767768,2024-10-08 12h52.59.850942 -0600,
92,X,1,x,91,91,0,x,1,0.36087819999374915,0.15042479999829084,0,91,91,91,332.12272439998924,,,,,,,,,,,332.10862259998976,332.12272439998924,332.12272439998924,332.30620909998834,332.32245249999687,,334.1068767999968,x,1,0.36087819999374915,0.15042479999829084,000002,001,2024-10-08_12h48.12.415,cpt_test,2024.2.2,60.16763907767768,2024-10-08 12h52.59.850942 -0600,
93,B,0,None,92,92,0,None,1,,,0,92,92,92,334.12137489998713,,,,,,,,,,,334.1070492999861,334.12137489998713,334.12137489998713,334.3042734999908,334.32059899999877,,336.1052237999975,None,1,,,000002,001,2024-10-08_12h48.12.415,cpt_test,2024.2.2,60.16763907767768,2024-10-08 12h52.59.850942 -0600,
94,M,0,None,93,93,0,None,1,,,0,93,93,93,336.11988799998653,,,,,,,,,,,336.1053746999969,336.11988799998653,336.11988799998653,336.3028253999946,336.31929839999066,,338.1037600999989,None,1,,,000002,001,2024-10-08_12h48.12.415,cpt_test,2024.2.2,60.16763907767768,2024-10-08 12h52.59.850942 -0600,
95,B,0,None,94,94,0,None,1,,,0,94,94,94,338.11813209998945,,,,,,,,,,,338.1039139999921,338.11813209998945,338.11813209998945,338.3009318999975,338.31747979999636,,340.10203219999676,None,1,,,000002,001,2024-10-08_12h48.12.415,cpt_test,2024.2.2,60.16763907767768,2024-10-08 12h52.59.850942 -0600,
96,I,0,None,95,95,0,None,1,,,0,95,95,95,340.1163843999966,,,,,,,,,,,340.10217980000016,340.1163843999966,340.1163843999966,340.31572899999446,340.31572899999446,,342.1168875000003,None,1,,,000002,001,2024-10-08_12h48.12.415,cpt_test,2024.2.2,60.16763907767768,2024-10-08 12h52.59.850942 -0600,
97,X,1,x,96,96,0,x,1,0.3197156999958679,0.16234070000064094,0,96,96,96,342.13164959999267,,,,,,,,,,,342.11703589999524,342.13164959999267,342.13164959999267,342.31442259998585,342.3306009999942,,344.11496359999,x,1,0.3197156999958679,0.16234070000064094,000002,001,2024-10-08_12h48.12.415,cpt_test,2024.2.2,60.16763907767768,2024-10-08 12h52.59.850942 -0600,
98,J,0,None,97,97,0,None,1,,,0,97,97,97,344.1295472999918,,,,,,,,,,,344.11510699999053,344.1295472999918,344.1295472999918,344.31257449999976,344.3291826999921,,346.11380429999554,None,1,,,000002,001,2024-10-08_12h48.12.415,cpt_test,2024.2.2,60.16763907767768,2024-10-08 12h52.59.850942 -0600,
99,X,1,x,98,98,0,x,1,0.38450479999301024,0.1687521999992896,0,98,98,98,346.12807309998607,,,,,,,,,,,346.11396129999775,346.12807309998607,346.12807309998607,346.3109187999944,346.32747659999586,,348.1130023999867,x,1,0.38450479999301024,0.1687521999992896,000002,001,2024-10-08_12h48.12.415,cpt_test,2024.2.2,60.16763907767768,2024-10-08 12h52.59.850942 -0600,
100,U,0,None,99,99,0,None,1,,,0,99,99,99,348.1261865999986,,,,,,,,,,,348.1132011999871,348.1261865999986,348.1261865999986,348.3098268999893,348.3259429999889,,350.11045269999886,None,1,,,000002,001,2024-10-08_12h48.12.415,cpt_test,2024.2.2,60.16763907767768,2024-10-08 12h52.59.850942 -0600,
101,D,0,None,100,100,0,None,1,,,0,100,100,100,350.12480059999507,,,,,,,,,,,350.11062259999744,350.12480059999507,350.12480059999507,350.30803889999515,350.32445000000007,,352.1089959999954,None,1,,,000002,001,2024-10-08_12h48.12.415,cpt_test,2024.2.2,60.16763907767768,2024-10-08 12h52.59.850942 -0600,
102,X,1,x,101,101,0,x,1,0.2880457999999635,0.1640651999914553,0,101,101,101,352.12310419999994,,,,,,,,,,,352.1091480999894,352.12310419999994,352.12310419999994,352.30642429999716,352.3226058,,354.1072351999901,x,1,0.2880457999999635,0.1640651999914553,000002,001,2024-10-08_12h48.12.415,cpt_test,2024.2.2,60.16763907767768,2024-10-08 12h52.59.850942 -0600,
103,X,1,x,102,102,0,x,1,0.29757599999720696,0.14636569999856874,0,102,102,102,354.1215724999929,,,,,,,,,,,354.1073917999893,354.1215724999929,354.1215724999929,354.3047716999863,354.32085099999676,,356.10544579999987,x,1,0.29757599999720696,0.14636569999856874,000002,001,2024-10-08_12h48.12.415,cpt_test,2024.2.2,60.16763907767768,2024-10-08 12h52.59.850942 -0600,
104,N,0,None,103,103,0,None,1,,,0,103,103,103,356.11970259998634,,,,,,,,,,,356.10561489999236,356.11970259998634,356.11970259998634,356.3031797000003,356.3194977999956,,358.1040526999859,None,1,,,000002,001,2024-10-08_12h48.12.415,cpt_test,2024.2.2,60.16763907767768,2024-10-08 12h52.59.850942 -0600,
105,U,0,None,104,104,0,None,1,,,0,104,104,104,358.11816849999013,,,,,,,,,,,358.1042094999866,358.11816849999013,358.11816849999013,358.30127619999985,358.31754179998825,,360.10219709998637,None,1,,,000002,001,2024-10-08_12h48.12.415,cpt_test,2024.2.2,60.16763907767768,2024-10-08 12h52.59.850942 -0600,
106,T,0,None,105,105,0,None,1,,,0,105,105,105,360.1163302999921,,,,,,,,,,,360.10234699999273,360.1163302999921,360.1163302999921,360.29985459998716,360.31594909999694,362.1142043999862,362.11654779998935,None,1,,,000002,001,2024-10-08_12h48.12.415,cpt_test,2024.2.2,60.16763907767768,2024-10-08 12h52.59.850942 -0600,
107,W,0,None,106,106,0,None,1,,,0,106,106,106,362.1319514999923,,,,,,,,,,,362.11668709998776,362.1319514999923,362.1319514999923,362.3157497999928,362.3316739999864,,364.115641899989,None,1,,,000002,001,2024-10-08_12h48.12.415,cpt_test,2024.2.2,60.16763907767768,2024-10-08 12h52.59.850942 -0600,
108,N,0,None,107,107,0,None,1,,,0,107,107,107,364.129910299991,,,,,,,,,,,364.1157985999889,364.129910299991,364.129910299991,364.31308290000015,364.32941690000007,,366.11391549999826,None,1,,,000002,001,2024-10-08_12h48.12.415,cpt_test,2024.2.2,60.16763907767768,2024-10-08 12h52.59.850942 -0600,
109,R,0,None,108,108,0,None,1,,,0,108,108,108,366.1283051999926,,,,,,,,,,,366.11406259999785,366.1283051999926,366.1283051999926,366.3111164999864,366.3275922999892,,368.1122361999878,None,1,,,000002,001,2024-10-08_12h48.12.415,cpt_test,2024.2.2,60.16763907767768,2024-10-08 12h52.59.850942 -0600,
110,X,1,x,109,109,0,x,1,0.3346423000039067,0.17275359999621287,0,109,109,109,368.126417099993,,,,,,,,,,,368.1123854999896,368.126417099993,368.126417099993,368.30972669999755,368.32625949999783,,370.11073299999407,x,1,0.3346423000039067,0.17275359999621287,000002,001,2024-10-08_12h48.12.415,cpt_test,2024.2.2,60.16763907767768,2024-10-08 12h52.59.850942 -0600,
111,A,0,None,110,110,0,None,1,,,0,110,110,110,370.1248773999978,,,,,,,,,,,370.11088159999053,370.1248773999978,370.1248773999978,370.30786909999733,370.3241626999952,,372.1093269999983,None,1,,,000002,001,2024-10-08_12h48.12.415,cpt_test,2024.2.2,60.16763907767768,2024-10-08 12h52.59.850942 -0600,
112,X,1,x,111,111,0,x,1,0.33200909999141004,0.15816720000293572,0,111,111,111,372.1232183999964,,,,,,,,,,,372.1094990999991,372.1232183999964,372.1232183999964,372.30613040000026,372.3226827999897,,374.107617799993,x,1,0.33200909999141004,0.15816720000293572,000002,001,2024-10-08_12h48.12.415,cpt_test,2024.2.2,60.16763907767768,2024-10-08 12h52.59.850942 -0600,
113,G,0,None,112,112,0,None,1,,,0,112,112,112,374.1216365,,,,,,,,,,,374.1077848999994,374.1216365,374.1216365,374.30489329999546,374.32114569999976,,376.1057093999989,None,1,,,000002,001,2024-10-08_12h48.12.415,cpt_test,2024.2.2,60.16763907767768,2024-10-08 12h52.59.850942 -0600,
114,O,0,None,113,113,0,None,1,,,0,113,113,113,376.1201355999947,,,,,,,,,,,376.10588269999425,376.1201355999947,376.1201355999947,376.30334869999206,376.31959499999357,,378.10413459999836,None,1,,,000002,001,2024-10-08_12h48.12.415,cpt_test,2024.2.2,60.16763907767768,2024-10-08 12h52.59.850942 -0600,
115,U,0,None,114,114,0,None,1,,,0,114,114,114,378.1184987999877,,,,,,,,,,,378.10429209998983,378.1184987999877,378.1184987999877,378.3013893999887,378.31794189999346,,380.10220129998925,None,1,,,000002,001,2024-10-08_12h48.12.415,cpt_test,2024.2.2,60.16763907767768,2024-10-08 12h52.59.850942 -0600,
116,X,1,x,115,115,0,x,1,0.33512380000320263,0.16919519999646582,0,115,115,115,380.1168914999871,,,,,,,,,,,380.1023470999935,380.1168914999871,380.1168914999871,380.2999211999995,380.31612859999586,,382.10161539999535,x,1,0.33512380000320263,0.16919519999646582,000002,001,2024-10-08_12h48.12.415,cpt_test,2024.2.2,60.16763907767768,2024-10-08 12h52.59.850942 -0600,
117,X,1,x,116,116,0,x,1,0.30374630000733305,0.14593839998997282,0,116,116,116,382.11509189999197,,,,,,,,,,,382.1018167000002,382.11509189999197,382.11509189999197,382.31473259998893,382.31473259998893,,384.1165123999963,x,1,0.30374630000733305,0.14593839998997282,000002,001,2024-10-08_12h48.12.415,cpt_test,2024.2.2,60.16763907767768,2024-10-08 12h52.59.850942 -0600,
118,C,0,None,117,117,0,None,1,,,0,117,117,117,384.130107399993,,,,,,,,,,,384.1167070999945,384.130107399993,384.130107399993,384.31323649999104,384.32954989999416,,386.1141690999939,None,1,,,000002,001,2024-10-08_12h48.12.415,cpt_test,2024.2.2,60.16763907767768,2024-10-08 12h52.59.850942 -0600,
119,A,0,None,118,118,0,None,1,,,0,118,118,118,386.1284188999998,,,,,,,,,,,386.1143258999946,386.1284188999998,386.1284188999998,386.3114754999988,386.3280076999945,,388.11287040000025,None,1,,,000002,001,2024-10-08_12h48.12.415,cpt_test,2024.2.2,60.16763907767768,2024-10-08 12h52.59.850942 -0600,
120,X,1,x,119,119,0,x,1,0.28397980000590906,0.15942109999014065,0,119,119,119,388.12658999999985,,,,,,,,,,,388.11304769999697,388.12658999999985,388.12658999999985,388.3099884999974,388.32626469999377,,390.1107045999961,x,1,0.28397980000590906,0.15942109999014065,000002,001,2024-10-08_12h48.12.415,cpt_test,2024.2.2,60.16763907767768,2024-10-08 12h52.59.850942 -0600,
121,H,0,None,120,120,0,None,1,,,0,120,120,120,390.1251581999968,,,,,,,,,,,390.11087189998943,390.1251581999968,390.1251581999968,390.30843849999656,390.32457409999915,,392.1095135999931,None,1,,,000002,001,2024-10-08_12h48.12.415,cpt_test,2024.2.2,60.16763907767768,2024-10-08 12h52.59.850942 -0600,
122,M,0,None,121,121,0,None,1,,,0,121,121,121,392.123603,,,,,,,,,,,392.10969349999505,392.123603,392.123603,392.3065951999888,392.3228364999959,,394.1077904999984,None,1,,,000002,001,2024-10-08_12h48.12.415,cpt_test,2024.2.2,60.16763907767768,2024-10-08 12h52.59.850942 -0600,
123,V,0,None,122,122,0,None,1,,,0,122,122,122,394.1217605999991,,,,,,,,,,,394.1079684999859,394.1217605999991,394.1217605999991,394.3053715999995,394.3212050999864,,396.106165899997,None,1,,,000002,001,2024-10-08_12h48.12.415,cpt_test,2024.2.2,60.16763907767768,2024-10-08 12h52.59.850942 -0600,
124,K,0,None,123,123,0,None,1,,,0,123,123,123,396.11991399999533,,,,,,,,,,,396.1063232999877,396.11991399999533,396.11991399999533,396.3034439999901,396.319785899992,,398.1042320999986,None,1,,,000002,001,2024-10-08_12h48.12.415,cpt_test,2024.2.2,60.16763907767768,2024-10-08 12h52.59.850942 -0600,
125,G,0,None,124,124,0,None,1,,,0,124,124,124,398.1185894999944,,,,,,,,,,,398.1043845999957,398.1185894999944,398.1185894999944,398.3018396999978,398.31788619999134,,400.10256839999056,None,1,,,000002,001,2024-10-08_12h48.12.415,cpt_test,2024.2.2,60.16763907767768,2024-10-08 12h52.59.850942 -0600,
126,A,0,None,125,125,0,None,1,,,0,125,125,125,400.11707869998645,,,,,,,,,,,400.1027097999904,400.11707869998645,400.11707869998645,400.30014399999345,400.31638149998616,,402.101271099993,None,1,,,000002,001,2024-10-08_12h48.12.415,cpt_test,2024.2.2,60.16763907767768,2024-10-08 12h52.59.850942 -0600,
127,X,1,x,126,126,0,x,1,0.25331730001198594,0.163832199992612,0,126,126,126,402.1151104999881,,,,,,,,,,,402.1014385999879,402.1151104999881,402.1151104999881,402.3148751999979,402.3148751999979,,404.1159359999874,x,1,0.25331730001198594,0.163832199992612,000002,001,2024-10-08_12h48.12.415,cpt_test,2024.2.2,60.16763907767768,2024-10-08 12h52.59.850942 -0600,
128,N,0,None,127,127,0,None,1,,,0,127,127,127,404.1303295999969,,,,,,,,,,,404.1161102999904,404.1303295999969,404.1303295999969,404.31349529999716,404.3295461999951,,406.1139112999954,None,1,,,000002,001,2024-10-08_12h48.12.415,cpt_test,2024.2.2,60.16763907767768,2024-10-08 12h52.59.850942 -0600,
129,Y,0,None,128,128,0,None,1,,,0,128,128,128,406.12856729999476,,,,,,,,,,,406.11404769998626,406.12856729999476,406.12856729999476,406.3119517999876,406.32794449999346,,408.1133720999933,None,1,,,000002,001,2024-10-08_12h48.12.415,cpt_test,2024.2.2,60.16763907767768,2024-10-08 12h52.59.850942 -0600,
130,W,0,None,129,129,0,None,1,,,0,129,129,129,408.12715649999154,,,,,,,,,,,408.1135734999989,408.12715649999154,408.12715649999154,408.310253299991,408.3264924999967,,410.11068169999635,None,1,,,000002,001,2024-10-08_12h48.12.415,cpt_test,2024.2.2,60.16763907767768,2024-10-08 12h52.59.850942 -0600,
131,L,0,None,130,130,0,None,1,,,0,130,130,130,410.1254786999925,,,,,,,,,,,410.1108278999891,410.1254786999925,410.1254786999925,410.3085471999948,410.3248967999971,,412.10944759999984,None,1,,,000002,001,2024-10-08_12h48.12.415,cpt_test,2024.2.2,60.16763907767768,2024-10-08 12h52.59.850942 -0600,
132,F,0,None,131,131,0,None,1,,,0,131,131,131,412.1236271999951,,,,,,,,,,,412.10961959999986,412.1236271999951,412.1236271999951,412.3069470999908,412.32328459998826,,414.10800909998943,None,1,,,000002,001,2024-10-08_12h48.12.415,cpt_test,2024.2.2,60.16763907767768,2024-10-08 12h52.59.850942 -0600,
133,E,0,None,132,132,0,None,1,,,0,132,132,132,414.1217956999899,,,,,,,,,,,414.1081703999953,414.1217956999899,414.1217956999899,414.30527349999466,414.32157169999846,,416.1059236000001,None,1,,,000002,001,2024-10-08_12h48.12.415,cpt_test,2024.2.2,60.16763907767768,2024-10-08 12h52.59.850942 -0600,
134,L,0,None,133,133,0,None,1,,,0,133,133,133,416.1204848999914,,,,,,,,,,,416.1060673999891,416.1204848999914,416.1204848999914,416.30332279999857,416.31989189999877,,418.104577399994,None,1,,,000002,001,2024-10-08_12h48.12.415,cpt_test,2024.2.2,60.16763907767768,2024-10-08 12h52.59.850942 -0600,
135,K,0,None,134,134,0,None,1,,,0,134,134,134,418.1185179999884,,,,,,,,,,,418.1047356999916,418.1185179999884,418.1185179999884,418.30203269999765,418.3183160999906,,420.10251849998895,None,1,,,000002,001,2024-10-08_12h48.12.415,cpt_test,2024.2.2,60.16763907767768,2024-10-08 12h52.59.850942 -0600,
136,Q,0,None,135,135,0,None,1,,,0,135,135,135,420.1172857999918,,,,,,,,,,,420.1026627999963,420.1172857999918,420.1172857999918,420.300473899988,420.3168392999942,,422.1019552999933,None,1,,,000002,001,2024-10-08_12h48.12.415,cpt_test,2024.2.2,60.16763907767768,2024-10-08 12h52.59.850942 -0600,
137,X,1,x,136,136,0,x,1,0.3318361999990884,0.1721819999947911,0,136,136,136,422.1154322999937,,,,,,,,,,,422.1020914999972,422.1154322999937,422.1154322999937,422.31504940000013,422.31504940000013,,424.1162246999884,x,1,0.3318361999990884,0.1721819999947911,000002,001,2024-10-08_12h48.12.415,cpt_test,2024.2.2,60.16763907767768,2024-10-08 12h52.59.850942 -0600,
138,J,0,None,137,137,0,None,1,,,0,137,137,137,424.1304261999903,,,,,,,,,,,424.11640289999195,424.1304261999903,424.1304261999903,424.3134796999948,424.32996730000013,,426.11440259999654,None,1,,,000002,001,2024-10-08_12h48.12.415,cpt_test,2024.2.2,60.16763907767768,2024-10-08 12h52.59.850942 -0600,
139,X,1,x,138,138,0,x,1,0.3592081000097096,0.17323749999923166,0,138,138,138,426.12890069998684,,,,,,,,,,,426.1145528999914,426.12890069998684,426.12890069998684,426.31186659999366,426.32826589999604,,428.1131494999863,x,1,0.3592081000097096,0.17323749999923166,000002,001,2024-10-08_12h48.12.415,cpt_test,2024.2.2,60.16763907767768,2024-10-08 12h52.59.850942 -0600,
140,E,0,None,139,139,0,None,1,,,0,139,139,139,428.1272728999902,,,,,,,,,,,428.1133441999991,428.1272728999902,428.1272728999902,428.31017569999676,428.32669969998824,,430.1113173999911,None,1,,,000002,001,2024-10-08_12h48.12.415,cpt_test,2024.2.2,60.16763907767768,2024-10-08 12h52.59.850942 -0600,
141,T,0,None,140,140,0,None,1,,,0,140,140,140,430.12558100000024,,,,,,,,,,,430.11147649999475,430.12558100000024,430.12558100000024,430.30883679998806,430.3250415999937,,432.1095126,None,1,,,000002,001,2024-10-08_12h48.12.415,cpt_test,2024.2.2,60.16763907767768,2024-10-08 12h52.59.850942 -0600,
142,X,1,x,141,141,0,x,1,0.29551680000440683,0.18089129999862053,0,141,141,141,432.12382499998785,,,,,,,,,,,432.109672999999,432.12382499998785,432.12382499998785,432.3071895999892,432.3233307999908,,434.1080774000002,x,1,0.29551680000440683,0.18089129999862053,000002,001,2024-10-08_12h48.12.415,cpt_test,2024.2.2,60.16763907767768,2024-10-08 12h52.59.850942 -0600,
143,Q,0,None,142,142,0,None,1,,,0,142,142,142,434.12247319999733,,,,,,,,,,,434.10822599999665,434.12247319999733,434.12247319999733,434.30518259998644,434.3217559999903,,436.106286899987,None,1,,,000002,001,2024-10-08_12h48.12.415,cpt_test,2024.2.2,60.16763907767768,2024-10-08 12h52.59.850942 -0600,
144,V,0,None,143,143,0,None,1,,,0,143,143,143,436.12073509999027,,,,,,,,,,,436.1064328999928,436.12073509999027,436.12073509999027,436.3036776999943,436.3202741999994,,438.10443359999044,None,1,,,000002,001,2024-10-08_12h48.12.415,cpt_test,2024.2.2,60.16763907767768,2024-10-08 12h52.59.850942 -0600,
145,Y,0,None,144,144,0,None,1,,,0,144,144,144,438.11876779999875,,,,,,,,,,,438.10457919999317,438.11876779999875,438.11876779999875,438.30226919999404,438.3184517999907,,440.1025735000003,None,1,,,000002,001,2024-10-08_12h48.12.415,cpt_test,2024.2.2,60.16763907767768,2024-10-08 12h52.59.850942 -0600,
146,O,0,None,145,145,0,None,1,,,0,145,145,145,440.1172496999934,,,,,,,,,,,440.1027139999933,440.1172496999934,440.1172496999934,440.3005296999909,440.316857599988,,442.1011181999929,None,1,,,000002,001,2024-10-08_12h48.12.415,cpt_test,2024.2.2,60.16763907767768,2024-10-08 12h52.59.850942 -0600,
147,T,0,None,146,146,0,None,1,,,0,146,146,146,442.11575049998646,,,,,,,,,,,442.1012630999903,442.11575049998646,442.11575049998646,442.3151848999987,442.3151848999987,,444.1161940999882,None,1,,,000002,001,2024-10-08_12h48.12.415,cpt_test,2024.2.2,60.16763907767768,2024-10-08 12h52.59.850942 -0600,
148,X,1,x,147,147,0,x,1,0.30974729999434203,0.16325300000607967,0,147,147,147,444.13085259999207,,,,,,,,,,,444.1163458999945,444.13085259999207,444.13085259999207,444.3135460999911,444.33019009999407,,446.1148220999894,x,1,0.30974729999434203,0.16325300000607967,000002,001,2024-10-08_12h48.12.415,cpt_test,2024.2.2,60.16763907767768,2024-10-08 12h52.59.850942 -0600,
149,T,0,None,148,148,0,None,1,,,0,148,148,148,446.12911679998797,,,,,,,,,,,446.1149766999879,446.12911679998797,446.12911679998797,446.3120751999959,446.3286480999959,,448.11315629999444,None,1,,,000002,001,2024-10-08_12h48.12.415,cpt_test,2024.2.2,60.16763907767768,2024-10-08 12h52.59.850942 -0600,
150,S,0,None,149,149,0,None,1,,,0,149,149,149,448.12737539999944,,,,,,,,,,,448.1133059999993,448.12737539999944,448.12737539999944,448.310402099989,448.3266689999873,,450.1115035999974,None,1,,,000002,001,2024-10-08_12h48.12.415,cpt_test,2024.2.2,60.16763907767768,2024-10-08 12h52.59.850942 -0600,
151,L,0,None,150,150,0,None,1,,,0,150,150,150,450.12552219998906,,,,,,,,,,,450.1116561999952,450.12552219998906,450.12552219998906,450.30874799999583,450.3251183999964,,452.10993069999677,None,1,,,000002,001,2024-10-08_12h48.12.415,cpt_test,2024.2.2,60.16763907767768,2024-10-08 12h52.59.850942 -0600,
152,V,0,None,151,151,0,None,1,,,0,151,151,151,452.1239268999925,,,,,,,,,,,452.11008619998756,452.1239268999925,452.1239268999925,452.3072397999931,452.323558899996,,454.10823009999876,None,1,,,000002,001,2024-10-08_12h48.12.415,cpt_test,2024.2.2,60.16763907767768,2024-10-08 12h52.59.850942 -0600,
153,C,0,None,152,152,0,None,1,,,0,152,152,152,454.1225243999943,,,,,,,,,,,454.108376499993,454.1225243999943,454.1225243999943,454.3053639999998,454.32176869999967,,456.1065724999935,None,1,,,000002,001,2024-10-08_12h48.12.415,cpt_test,2024.2.2,60.16763907767768,2024-10-08 12h52.59.850942 -0600,
154,U,0,None,153,153,0,None,1,,,0,153,153,153,456.12071649999416,,,,,,,,,,,456.1067320999864,456.12071649999416,456.12071649999416,456.3037697999971,456.32037239999045,,458.1044494999951,None,1,,,000002,001,2024-10-08_12h48.12.415,cpt_test,2024.2.2,60.16763907767768,2024-10-08 12h52.59.850942 -0600,
155,X,1,x,154,154,0,x,1,0.34171920000517275,0.1922684000019217,0,154,154,154,458.1190864999953,,,,,,,,,,,458.1045892999973,458.1190864999953,458.1190864999953,458.3022096999921,458.3187188999873,,460.10296559998824,x,1,0.34171920000517275,0.1922684000019217,000002,001,2024-10-08_12h48.12.415,cpt_test,2024.2.2,60.16763907767768,2024-10-08 12h52.59.850942 -0600,
156,X,1,x,155,155,0,x,1,0.2949763999931747,0.18943730001046788,0,155,155,155,460.117648799991,,,,,,,,,,,460.103126099988,460.117648799991,460.117648799991,460.3010349999968,460.31678189999366,,462.10186469998735,x,1,0.2949763999931747,0.18943730001046788,000002,001,2024-10-08_12h48.12.415,cpt_test,2024.2.2,60.16763907767768,2024-10-08 12h52.59.850942 -0600,
157,L,0,None,156,156,0,None,1,,,0,156,156,156,462.11606769998616,,,,,,,,,,,462.1020606999955,462.11606769998616,462.11606769998616,462.3152424999862,462.3152424999862,,464.11682529999234,None,1,,,000002,001,2024-10-08_12h48.12.415,cpt_test,2024.2.2,60.16763907767768,2024-10-08 12h52.59.850942 -0600,
158,W,0,None,157,157,0,None,1,,,0,157,157,157,464.1307041999971,,,,,,,,,,,464.11699149999185,464.1307041999971,464.1307041999971,464.31380349998653,464.330117599995,,466.11457359998894,None,1,,,000002,001,2024-10-08_12h48.12.415,cpt_test,2024.2.2,60.16763907767768,2024-10-08 12h52.59.850942 -0600,
159,A,0,None,158,158,0,None,1,,,0,158,158,158,466.1290663999971,,,,,,,,,,,466.11471029999666,466.1290663999971,466.1290663999971,466.31217269999615,466.3287152999983,,468.1129823999945,None,1,,,000002,001,2024-10-08_12h48.12.415,cpt_test,2024.2.2,60.16763907767768,2024-10-08 12h52.59.850942 -0600,
160,X,1,x,159,159,0,x,1,0.3618234999885317,0.1638845000125002,0,159,159,159,468.1277276999899,,,,,,,,,,,468.1131388999929,468.1277276999899,468.1277276999899,468.31060699999216,468.32697109998844,,470.1114751999994,x,1,0.3618234999885317,0.1638845000125002,000002,001,2024-10-08_12h48.12.415,cpt_test,2024.2.2,60.16763907767768,2024-10-08 12h52.59.850942 -0600,
161,A,0,None,160,160,0,None,1,,,0,160,160,160,470.1259432999941,,,,,,,,,,,470.11161749999155,470.1259432999941,470.1259432999941,470.30902189998596,470.32528399999137,,472.11001789999136,None,1,,,000002,001,2024-10-08_12h48.12.415,cpt_test,2024.2.2,60.16763907767768,2024-10-08 12h52.59.850942 -0600,
162,M,0,None,161,161,0,None,1,,,0,161,161,161,472.1240312999871,,,,,,,,,,,472.1101636999956,472.1240312999871,472.1240312999871,472.3074506999983,472.323822499995,,474.10828039998887,None,1,,,000002,001,2024-10-08_12h48.12.415,cpt_test,2024.2.2,60.16763907767768,2024-10-08 12h52.59.850942 -0600,
163,X,1,x,162,162,0,x,1,0.34946779999881983,0.16340320000017527,0,162,162,162,474.12233609998657,,,,,,,,,,,474.10842529998627,474.12233609998657,474.12233609998657,474.30596969999897,474.3221942999953,,476.1066820999986,x,1,0.34946779999881983,0.16340320000017527,000002,001,2024-10-08_12h48.12.415,cpt_test,2024.2.2,60.16763907767768,2024-10-08 12h52.59.850942 -0600,
164,X,1,x,163,163,0,x,1,0.2827704000083031,0.17693609998968896,0,163,163,163,476.1209444999986,,,,,,,,,,,476.1068624999898,476.1209444999986,476.1209444999986,476.3041486000002,476.320332599993,,478.10508549999213,x,1,0.2827704000083031,0.17693609998968896,000002,001,2024-10-08_12h48.12.415,cpt_test,2024.2.2,60.16763907767768,2024-10-08 12h52.59.850942 -0600,
165,K,0,None,164,164,0,None,1,,,0,164,164,164,478.11935119998816,,,,,,,,,,,478.1052554999915,478.11935119998816,478.11935119998816,478.3025517999922,478.31886929999746,,480.1031385999959,None,1,,,000002,001,2024-10-08_12h48.12.415,cpt_test,2024.2.2,60.16763907767768,2024-10-08 12h52.59.850942 -0600,
166,X,1,x,165,165,0,x,1,0.31854310000198893,0.15563429999747314,0,165,165,165,480.11778799998865,,,,,,,,,,,480.1032906999899,480.11778799998865,480.11778799998865,480.3005559999874,480.31709989999945,,482.10183349999716,x,1,0.31854310000198893,0.15563429999747314,000002,001,2024-10-08_12h48.12.415,cpt_test,2024.2.2,60.16763907767768,2024-10-08 12h52.59.850942 -0600,
167,M,0,None,166,166,0,None,1,,,0,166,166,166,482.1158831999928,,,,,,,,,,,482.10200939999777,482.1158831999928,482.1158831999928,482.31551169999875,482.31551169999875,,484.11658999999054,None,1,,,000002,001,2024-10-08_12h48.12.415,cpt_test,2024.2.2,60.16763907767768,2024-10-08 12h52.59.850942 -0600,
168,X,1,x,167,167,0,x,1,0.32761189999291673,0.16672160000598524,0,167,167,167,484.13110539999616,,,,,,,,,,,484.11676029999217,484.13110539999616,484.13110539999616,484.3142826999974,484.3305199999886,,486.115243999986,x,1,0.32761189999291673,0.16672160000598524,000002,001,2024-10-08_12h48.12.415,cpt_test,2024.2.2,60.16763907767768,2024-10-08 12h52.59.850942 -0600,
169,A,0,None,168,168,0,None,1,,,0,168,168,168,486.1294976999925,,,,,,,,,,,486.1154267999955,486.1294976999925,486.1294976999925,486.3125599999912,486.32904399999825,,488.1136250999989,None,1,,,000002,001,2024-10-08_12h48.12.415,cpt_test,2024.2.2,60.16763907767768,2024-10-08 12h52.59.850942 -0600,
170,X,1,x,169,169,0,x,1,0.42500760000257287,0.16816820000531152,0,169,169,169,488.12769289998687,,,,,,,,,,,488.1137813999958,488.12769289998687,488.12769289998687,488.3110445999919,488.32730319999973,,490.1121342999977,x,1,0.42500760000257287,0.16816820000531152,000002,001,2024-10-08_12h48.12.415,cpt_test,2024.2.2,60.16763907767768,2024-10-08 12h52.59.850942 -0600,
171,L,0,None,170,170,0,None,1,,,0,170,170,170,490.12618629999633,,,,,,,,,,,490.1122842999903,490.12618629999633,490.12618629999633,490.3092818999867,490.3253762999957,,492.1109194999881,None,1,,,000002,001,2024-10-08_12h48.12.415,cpt_test,2024.2.2,60.16763907767768,2024-10-08 12h52.59.850942 -0600,
172,E,0,None,171,171,0,None,1,,,0,171,171,171,492.1244292999909,,,,,,,,,,,492.11110079998616,492.1244292999909,492.1244292999909,492.3077592999907,492.3240530999901,,494.10829459999513,None,1,,,000002,001,2024-10-08_12h48.12.415,cpt_test,2024.2.2,60.16763907767768,2024-10-08 12h52.59.850942 -0600,
173,T,0,None,172,172,0,None,1,,,0,172,172,172,494.12282809999306,,,,,,,,,,,494.1084344999981,494.12282809999306,494.12282809999306,494.30615069999476,494.3223643999954,,496.1077670999948,None,1,,,000002,001,2024-10-08_12h48.12.415,cpt_test,2024.2.2,60.16763907767768,2024-10-08 12h52.59.850942 -0600,
174,F,0,None,173,173,0,None,1,,,0,173,173,173,496.1210452999949,,,,,,,,,,,496.10795019999205,496.1210452999949,496.1210452999949,496.3039901999873,496.3203974999924,,498.1051271999895,None,1,,,000002,001,2024-10-08_12h48.12.415,cpt_test,2024.2.2,60.16763907767768,2024-10-08 12h52.59.850942 -0600,
175,M,0,None,174,174,0,None,1,,,0,174,174,174,498.11970719999226,,,,,,,,,,,498.1052834999864,498.11970719999226,498.11970719999226,498.3028529999865,498.3191000999941,,500.10327189999225,None,1,,,000002,001,2024-10-08_12h48.12.415,cpt_test,2024.2.2,60.16763907767768,2024-10-08 12h52.59.850942 -0600,
176,Q,0,None,175,175,0,None,1,,,0,175,175,175,500.1176523999893,,,,,,,,,,,500.1034107999876,500.1176523999893,500.1176523999893,500.30092799999693,500.31731809998746,,502.1016926999873,None,1,,,000002,001,2024-10-08_12h48.12.415,cpt_test,2024.2.2,60.16763907767768,2024-10-08 12h52.59.850942 -0600,
177,M,0,None,176,176,0,None,1,,,0,176,176,176,502.1162151999888,,,,,,,,,,,502.10185139998794,502.1162151999888,502.1162151999888,502.3158274999878,502.3158274999878,,504.11723409999104,None,1,,,000002,001,2024-10-08_12h48.12.415,cpt_test,2024.2.2,60.16763907767768,2024-10-08 12h52.59.850942 -0600,
178,X,1,x,177,177,0,x,1,0.33492379999370314,0.19315060001099482,0,177,177,177,504.13102249999065,,,,,,,,,,,504.11739419998776,504.13102249999065,504.13102249999065,504.3145087999874,504.33071189999464,,506.1152546999947,x,1,0.33492379999370314,0.19315060001099482,000002,001,2024-10-08_12h48.12.415,cpt_test,2024.2.2,60.16763907767768,2024-10-08 12h52.59.850942 -0600,
179,V,0,None,178,178,0,None,1,,,0,178,178,178,506.12962289999996,,,,,,,,,,,506.1154158999998,506.12962289999996,506.12962289999996,506.3124439999956,506.3290379999962,,508.11360559999594,None,1,,,000002,001,2024-10-08_12h48.12.415,cpt_test,2024.2.2,60.16763907767768,2024-10-08 12h52.59.850942 -0600,
180,M,0,None,179,179,0,None,1,,,0,179,179,179,508.12823509999726,,,,,,,,,,,508.113760799999,508.12823509999726,508.12823509999726,508.3112863999995,508.32753070000035,,510.1116674999939,None,1,,,000002,001,2024-10-08_12h48.12.415,cpt_test,2024.2.2,60.16763907767768,2024-10-08 12h52.59.850942 -0600,
181,P,0,None,180,180,0,None,1,,,0,180,180,180,510.1264580999996,,,,,,,,,,,510.1118049999932,510.1264580999996,510.1264580999996,510.30935319999116,510.3257200999942,,512.1109652999876,None,1,,,000002,001,2024-10-08_12h48.12.415,cpt_test,2024.2.2,60.16763907767768,2024-10-08 12h52.59.850942 -0600,
182,K,0,None,181,181,0,None,1,,,0,181,181,181,512.1245108000003,,,,,,,,,,,512.1111405999982,512.1245108000003,512.1245108000003,512.3078096999961,512.3240015999909,,514.1091771999927,None,1,,,000002,001,2024-10-08_12h48.12.415,cpt_test,2024.2.2,60.16763907767768,2024-10-08 12h52.59.850942 -0600,
183,V,0,None,182,182,0,None,1,,,0,182,182,182,514.1227743999916,,,,,,,,,,,514.1093641999905,514.1227743999916,514.1227743999916,514.3061087999959,514.3222394999902,,516.106984099999,None,1,,,000002,001,2024-10-08_12h48.12.415,cpt_test,2024.2.2,60.16763907767768,2024-10-08 12h52.59.850942 -0600,
184,G,0,None,183,183,0,None,1,,,0,183,183,183,516.121396699993,,,,,,,,,,,516.1071347999969,516.121396699993,516.121396699993,516.3046091999859,516.3208078999887,,518.105187299996,None,1,,,000002,001,2024-10-08_12h48.12.415,cpt_test,2024.2.2,60.16763907767768,2024-10-08 12h52.59.850942 -0600,
185,L,0,None,184,184,0,None,1,,,0,184,184,184,518.1198159999913,,,,,,,,,,,518.1053372999886,518.1198159999913,518.1198159999913,518.3026504999871,518.3191487000004,,520.1039950999984,None,1,,,000002,001,2024-10-08_12h48.12.415,cpt_test,2024.2.2,60.16763907767768,2024-10-08 12h52.59.850942 -0600,
186,Q,0,None,185,185,0,None,1,,,0,185,185,185,520.118072399986,,,,,,,,,,,520.1041612999979,520.118072399986,520.118072399986,520.3013809999975,520.3175738999998,,522.1024801999883,None,1,,,000002,001,2024-10-08_12h48.12.415,cpt_test,2024.2.2,60.16763907767768,2024-10-08 12h52.59.850942 -0600,
187,N,0,None,186,186,0,None,1,,,0,186,186,186,522.1167621999921,,,,,,,,,,,522.1026463999879,522.1167621999921,522.1167621999921,522.2997087999975,522.3157865999965,524.1143436999992,524.1167544999917,None,1,,,000002,001,2024-10-08_12h48.12.415,cpt_test,2024.2.2,60.16763907767768,2024-10-08 12h52.59.850942 -0600,
188,K,0,None,187,187,0,None,1,,,0,187,187,187,524.1312551999872,,,,,,,,,,,524.1169086999871,524.1312551999872,524.1312551999872,524.3147033999994,524.3306680999958,,526.1151238999882,None,1,,,000002,001,2024-10-08_12h48.12.415,cpt_test,2024.2.2,60.16763907767768,2024-10-08 12h52.59.850942 -0600,
189,C,0,None,188,188,0,None,1,,,0,188,188,188,526.1297168999881,,,,,,,,,,,526.1152619999921,526.1297168999881,526.1297168999881,526.3127524999873,526.3291092999862,,528.1144369999965,None,1,,,000002,001,2024-10-08_12h48.12.415,cpt_test,2024.2.2,60.16763907767768,2024-10-08 12h52.59.850942 -0600,
190,Z,0,None,189,189,0,None,1,,,0,189,189,189,528.1279788999964,,,,,,,,,,,528.1146306999872,528.1279788999964,528.1279788999964,528.3111388999969,528.3275598999899,,530.1119294999953,None,1,,,000002,001,2024-10-08_12h48.12.415,cpt_test,2024.2.2,60.16763907767768,2024-10-08 12h52.59.850942 -0600,
191,I,0,None,190,190,0,None,1,,,0,190,190,190,530.126389099998,,,,,,,,,,,530.1120674999984,530.126389099998,530.126389099998,530.3097240999923,530.325874599992,,532.1103334999934,None,1,,,000002,001,2024-10-08_12h48.12.415,cpt_test,2024.2.2,60.16763907767768,2024-10-08 12h52.59.850942 -0600,
192,J,0,None,191,191,0,None,1,,,0,191,191,191,532.124705899987,,,,,,,,,,,532.1104717999988,532.124705899987,532.124705899987,532.3080116999918,532.3241538000002,,534.1089520999958,None,1,,,000002,001,2024-10-08_12h48.12.415,cpt_test,2024.2.2,60.16763907767768,2024-10-08 12h52.59.850942 -0600,
193,X,1,x,192,192,0,x,1,0.29779250000137836,0.22851580000133254,0,192,192,192,534.1231094999966,,,,,,,,,,,534.1091167999984,534.1231094999966,534.1231094999966,534.3065415999881,534.3225539999985,,536.1072644999949,x,1,0.29779250000137836,0.22851580000133254,000002,001,2024-10-08_12h48.12.415,cpt_test,2024.2.2,60.16763907767768,2024-10-08 12h52.59.850942 -0600,
194,E,0,None,193,193,0,None,1,,,0,193,193,193,536.1217018999887,,,,,,,,,,,536.1074315999867,536.1217018999887,536.1217018999887,536.3047922999976,536.3208374999958,,538.1059438999946,None,1,,,000002,001,2024-10-08_12h48.12.415,cpt_test,2024.2.2,60.16763907767768,2024-10-08 12h52.59.850942 -0600,
195,X,1,x,194,194,0,x,1,0.3929479999933392,0.20446650001395028,0,194,194,194,538.119989999992,,,,,,,,,,,538.1061249999912,538.119989999992,538.119989999992,538.3030979999894,538.3193380999874,,540.103870299994,x,1,0.3929479999933392,0.20446650001395028,000002,001,2024-10-08_12h48.12.415,cpt_test,2024.2.2,60.16763907767768,2024-10-08 12h52.59.850942 -0600,
196,X,1,x,195,195,0,x,1,0.3443132999964291,0.19574579999607522,0,195,195,195,540.1182283999951,,,,,,,,,,,540.1040349999967,540.1182283999951,540.1182283999951,540.3014164999913,540.3181054999877,,542.1022246999928,x,1,0.3443132999964291,0.19574579999607522,000002,001,2024-10-08_12h48.12.415,cpt_test,2024.2.2,60.16763907767768,2024-10-08 12h52.59.850942 -0600,
197,O,0,None,196,196,0,None,1,,,0,196,196,196,542.1164651999861,,,,,,,,,,,542.1023975999997,542.1164651999861,542.1164651999861,542.2998216999986,542.3162040999887,,544.1007757999905,None,1,,,000002,001,2024-10-08_12h48.12.415,cpt_test,2024.2.2,60.16763907767768,2024-10-08 12h52.59.850942 -0600,
198,X,1,x,197,197,0,x,1,0.28789720000349917,0.16961270000319928,0,197,197,197,544.1151342999947,,,,,,,,,,,544.1009458999906,544.1151342999947,544.1151342999947,544.3144484999939,544.3144484999939,,546.1159043999942,x,1,0.28789720000349917,0.16961270000319928,000002,001,2024-10-08_12h48.12.415,cpt_test,2024.2.2,60.16763907767768,2024-10-08 12h52.59.850942 -0600,
199,T,0,None,198,198,0,None,1,,,0,198,198,198,546.129817699999,,,,,,,,,,,546.1160736999882,546.129817699999,546.129817699999,546.3131053999969,546.3294067999959,,548.113855299991,None,1,,,000002,001,2024-10-08_12h48.12.415,cpt_test,2024.2.2,60.16763907767768,2024-10-08 12h52.59.850942 -0600,
200,X,1,x,199,199,0,x,1,0.32972460000019055,0.16322069999296218,0,199,199,199,548.1282604999869,,,,,,,,,,,548.1139954999962,548.1282604999869,548.1282604999869,548.3116134999873,548.3286930999893,,550.1126694999984,x,1,0.32972460000019055,0.16322069999296218,000002,001,2024-10-08_12h48.12.415,cpt_test,2024.2.2,60.16763907767768,2024-10-08 12h52.59.850942 -0600,
201,L,0,None,200,200,0,None,1,,,0,200,200,200,550.126403199989,,,,,,,,,,,550.1128521999926,550.126403199989,550.126403199989,550.3099341999914,550.3261975999922,,552.1109657999914,None,1,,,000002,001,2024-10-08_12h48.12.415,cpt_test,2024.2.2,60.16763907767768,2024-10-08 12h52.59.850942 -0600,
