Number,letra,target,correctas,thisN,thisTrialN,thisRepN,respuesta.keys,respuesta.corr,respuesta.rt,respuesta.duration,trials.thisRepN,trials.thisTrialN,trials.thisN,trials.thisIndex,thisRow.t,notes,Ojos_abiertos.started,Abiertos.started,Ojos_abiertos.stopped,Ojos_cerrados.started,Cerrados.started,alert.started,Cerrados.stopped,alert.stopped,Ojos_cerrados.stopped,Test.started,prueba.started,respuesta.started,text.started,prueba.stopped,Test.stopped,trials.respuesta.keys,trials.respuesta.corr,trials.respuesta.rt,trials.respuesta.duration,text.stopped,participant,session,date,expName,psychopyVersion,frameRate,expStart,
,,,,,,,,,,,,,,,,,0.01351660001091659,0.022238300007302314,90.00309250000282,,,,,,,,,,,,,,,,,,000018,001,2024-10-10_13h38.35.725,cpt_test,2024.2.2,59.977496446537565,2024-10-10 13h40.16.268130 -0600,
,,,,,,,,,,,,,,,,,,,,90.01479400001699,90.02356630002032,150.0001337666802,150.03341520001413,150.30124650002108,150.1040447000123,,,,,,,,,,,,000018,001,2024-10-10_13h38.35.725,cpt_test,2024.2.2,59.977496446537565,2024-10-10 13h40.16.268130 -0600,
1,A,0,None,0,0,0,None,1,,,0,0,0,0,150.30124650002108,,,,,,,,,,,150.13406790001318,150.30124650002108,150.30124650002108,150.31283000000985,150.51638780001667,152.1009894000017,None,1,,,,000018,001,2024-10-10_13h38.35.725,cpt_test,2024.2.2,59.977496446537565,2024-10-10 13h40.16.268130 -0600,
2,R,0,None,1,1,0,None,1,,,0,1,1,1,152.11985180000192,,,,,,,,,,,152.10113220001222,152.11985180000192,152.11985180000192,152.3153310000198,152.3316781000176,154.11638120000134,None,1,,,,000018,001,2024-10-10_13h38.35.725,cpt_test,2024.2.2,59.977496446537565,2024-10-10 13h40.16.268130 -0600,
3,L,0,None,2,2,0,None,1,,,0,2,2,2,154.1342008000065,,,,,,,,,,,154.11654840002302,154.1342008000065,154.1342008000065,154.31361790001392,154.34675600001356,156.1145749000134,None,1,,,,000018,001,2024-10-10_13h38.35.725,cpt_test,2024.2.2,59.977496446537565,2024-10-10 13h40.16.268130 -0600,
4,X,1,x,3,3,0,x,1,0.38434869999764487,0.20549819999723695,0,3,3,3,156.1305722000252,,,,,,,,,,,156.11473130001104,156.1305722000252,156.1305722000252,156.31196620000992,156.34503840000252,158.11296990001574,x,1,0.38434869999764487,0.20549819999723695,,000018,001,2024-10-10_13h38.35.725,cpt_test,2024.2.2,59.977496446537565,2024-10-10 13h40.16.268130 -0600,
5,O,0,None,4,4,0,None,1,,,0,4,4,4,158.12949370002025,,,,,,,,,,,158.11313670000527,158.12949370002025,158.12949370002025,158.31048000001465,158.34343500001705,160.11110180002288,None,1,,,,000018,001,2024-10-10_13h38.35.725,cpt_test,2024.2.2,59.977496446537565,2024-10-10 13h40.16.268130 -0600,
6,G,0,None,5,5,0,None,1,,,0,5,5,5,160.1264635999978,,,,,,,,,,,160.1112523000047,160.1264635999978,160.1264635999978,160.30867700002273,160.3418851000024,162.1099279000191,None,1,,,,000018,001,2024-10-10_13h38.35.725,cpt_test,2024.2.2,59.977496446537565,2024-10-10 13h40.16.268130 -0600,
7,P,0,None,6,6,0,None,1,,,0,6,6,6,162.1265689000138,,,,,,,,,,,162.11009060000652,162.1265689000138,162.1265689000138,162.30703740002355,162.33989400000428,164.10805619999883,None,1,,,,000018,001,2024-10-10_13h38.35.725,cpt_test,2024.2.2,59.977496446537565,2024-10-10 13h40.16.268130 -0600,
8,X,1,x,7,7,0,x,1,0.3641905999975279,0.22067640000022948,0,7,7,7,164.12246480002068,,,,,,,,,,,164.10822150000604,164.12246480002068,164.12246480002068,164.30556610002532,164.32168980001006,166.10616330002085,x,1,0.3641905999975279,0.22067640000022948,,000018,001,2024-10-10_13h38.35.725,cpt_test,2024.2.2,59.977496446537565,2024-10-10 13h40.16.268130 -0600,
9,X,1,x,8,8,0,x,1,0.5871586000139359,0.20921299999463372,0,8,8,8,166.1206071000197,,,,,,,,,,,166.10632089999854,166.1206071000197,166.1206071000197,166.30392510001548,166.32010830001673,168.10525900000357,x,1,0.5871586000139359,0.20921299999463372,,000018,001,2024-10-10_13h38.35.725,cpt_test,2024.2.2,59.977496446537565,2024-10-10 13h40.16.268130 -0600,
10,Z,0,None,9,9,0,None,1,,,0,9,9,9,168.12257130001672,,,,,,,,,,,168.10545080000884,168.12257130001672,168.12257130001672,168.30231640001875,168.33505530000548,170.10267720001866,None,1,,,,000018,001,2024-10-10_13h38.35.725,cpt_test,2024.2.2,59.977496446537565,2024-10-10 13h40.16.268130 -0600,
11,I,0,None,10,10,0,None,1,,,0,10,10,10,170.11802670001634,,,,,,,,,,,170.10282000000007,170.11802670001634,170.11802670001634,170.30026000001817,170.3333945000195,172.10158620000584,None,1,,,,000018,001,2024-10-10_13h38.35.725,cpt_test,2024.2.2,59.977496446537565,2024-10-10 13h40.16.268130 -0600,
12,D,0,None,11,11,0,None,1,,,0,11,11,11,172.11983720000717,,,,,,,,,,,172.1017405000166,172.11983720000717,172.11983720000717,172.31554560002405,172.33174170000711,174.1164403000148,None,1,,,,000018,001,2024-10-10_13h38.35.725,cpt_test,2024.2.2,59.977496446537565,2024-10-10 13h40.16.268130 -0600,
13,X,1,x,12,12,0,x,1,0.4249608999816701,0.2405367000028491,0,12,12,12,174.13061570000718,,,,,,,,,,,174.11659980000695,174.13061570000718,174.13061570000718,174.31383430000278,174.33022570001776,176.1148396000208,x,1,0.4249608999816701,0.2405367000028491,,000018,001,2024-10-10_13h38.35.725,cpt_test,2024.2.2,59.977496446537565,2024-10-10 13h40.16.268130 -0600,
14,Y,0,None,13,13,0,None,1,,,0,13,13,13,176.13275240000803,,,,,,,,,,,176.1150015000021,176.13275240000803,176.13275240000803,176.312113699998,176.34513770000194,178.11349690001225,None,1,,,,000018,001,2024-10-10_13h38.35.725,cpt_test,2024.2.2,59.977496446537565,2024-10-10 13h40.16.268130 -0600,
15,X,1,x,14,14,0,x,1,0.4700318000104744,0.24116760000470094,0,14,14,14,178.1271560000023,,,,,,,,,,,178.11366670002462,178.1271560000023,178.1271560000023,178.31037270001252,178.32682650000788,180.11155930001405,x,1,0.4700318000104744,0.24116760000470094,,000018,001,2024-10-10_13h38.35.725,cpt_test,2024.2.2,59.977496446537565,2024-10-10 13h40.16.268130 -0600,
16,X,1,x,15,15,0,x,1,0.39219450001837686,0.24975149999954738,0,15,15,15,180.1259407000034,,,,,,,,,,,180.11171940001077,180.1259407000034,180.1259407000034,180.30906610001693,180.3251846000203,182.1099080000131,x,1,0.39219450001837686,0.24975149999954738,,000018,001,2024-10-10_13h38.35.725,cpt_test,2024.2.2,59.977496446537565,2024-10-10 13h40.16.268130 -0600,
17,A,0,None,16,16,0,None,1,,,0,16,16,16,182.12390110001434,,,,,,,,,,,182.11006560001988,182.12390110001434,182.12390110001434,182.30739010000252,182.32368700002553,184.1081960000156,None,1,,,,000018,001,2024-10-10_13h38.35.725,cpt_test,2024.2.2,59.977496446537565,2024-10-10 13h40.16.268130 -0600,
18,J,0,None,17,17,0,None,1,,,0,17,17,17,184.12582230000407,,,,,,,,,,,184.10833920000005,184.12582230000407,184.12582230000407,184.30579430001671,184.33850630000234,186.10667760000797,None,1,,,,000018,001,2024-10-10_13h38.35.725,cpt_test,2024.2.2,59.977496446537565,2024-10-10 13h40.16.268130 -0600,
19,G,0,None,18,18,0,None,1,,,0,18,18,18,186.12086770002497,,,,,,,,,,,186.1068307000096,186.12086770002497,186.12086770002497,186.30419910000637,186.3201896000246,188.10506990001886,None,1,,,,000018,001,2024-10-10_13h38.35.725,cpt_test,2024.2.2,59.977496446537565,2024-10-10 13h40.16.268130 -0600,
20,X,1,x,19,19,0,x,1,0.5094277999887709,0.259784000023501,0,19,19,19,188.11934330000076,,,,,,,,,,,188.10522490000585,188.11934330000076,188.11934330000076,188.30239230001462,188.31909430000815,190.10330460002297,x,1,0.5094277999887709,0.259784000023501,,000018,001,2024-10-10_13h38.35.725,cpt_test,2024.2.2,59.977496446537565,2024-10-10 13h40.16.268130 -0600,
21,T,0,None,20,20,0,None,1,,,0,20,20,20,190.12135490000946,,,,,,,,,,,190.10347670002375,190.12135490000946,190.12135490000946,190.3004559999972,190.33386920002522,192.10183900000993,None,1,,,,000018,001,2024-10-10_13h38.35.725,cpt_test,2024.2.2,59.977496446537565,2024-10-10 13h40.16.268130 -0600,
22,S,0,None,21,21,0,None,1,,,0,21,21,21,192.12120660001528,,,,,,,,,,,192.10201920001418,192.12120660001528,192.12120660001528,192.31586400000378,192.33202900001197,194.11650699999882,None,1,,,,000018,001,2024-10-10_13h38.35.725,cpt_test,2024.2.2,59.977496446537565,2024-10-10 13h40.16.268130 -0600,
23,X,1,x,22,22,0,x,1,0.46799050000845455,0.2468749999825377,0,22,22,22,194.13073640002403,,,,,,,,,,,194.11664800002472,194.13073640002403,194.13073640002403,194.31397040002048,194.3304675000254,196.11537630000385,x,1,0.46799050000845455,0.2468749999825377,,000018,001,2024-10-10_13h38.35.725,cpt_test,2024.2.2,59.977496446537565,2024-10-10 13h40.16.268130 -0600,
24,S,0,None,23,23,0,None,1,,,0,23,23,23,196.12913260000641,,,,,,,,,,,196.11558310000692,196.12913260000641,196.12913260000641,196.312487600022,196.3288034000143,198.11302220000653,None,1,,,,000018,001,2024-10-10_13h38.35.725,cpt_test,2024.2.2,59.977496446537565,2024-10-10 13h40.16.268130 -0600,
25,G,0,None,24,24,0,None,1,,,0,24,24,24,198.12797940001474,,,,,,,,,,,198.1131723000144,198.12797940001474,198.12797940001474,198.31059619999724,198.32698540002457,200.11222860001726,None,1,,,,000018,001,2024-10-10_13h38.35.725,cpt_test,2024.2.2,59.977496446537565,2024-10-10 13h40.16.268130 -0600,
26,O,0,None,25,25,0,None,1,,,0,25,25,25,200.12588170001982,,,,,,,,,,,200.1124127000221,200.12588170001982,200.12588170001982,200.30965780001134,200.32547209999757,202.11048120001215,None,1,,,,000018,001,2024-10-10_13h38.35.725,cpt_test,2024.2.2,59.977496446537565,2024-10-10 13h40.16.268130 -0600,
27,P,0,None,26,26,0,None,1,,,0,26,26,26,202.12404049999896,,,,,,,,,,,202.1106474000262,202.12404049999896,202.12404049999896,202.30762060001143,202.3239955000172,204.1081414000073,None,1,,,,000018,001,2024-10-10_13h38.35.725,cpt_test,2024.2.2,59.977496446537565,2024-10-10 13h40.16.268130 -0600,
28,Z,0,None,27,27,0,None,1,,,0,27,27,27,204.12243800002034,,,,,,,,,,,204.10829800000647,204.12243800002034,204.12243800002034,204.30562120000832,204.32223540000268,206.10644430000684,None,1,,,,000018,001,2024-10-10_13h38.35.725,cpt_test,2024.2.2,59.977496446537565,2024-10-10 13h40.16.268130 -0600,
29,X,1,x,28,28,0,x,1,0.5238884999998845,0.2685300000011921,0,28,28,28,206.121131300024,,,,,,,,,,,206.10659640000085,206.121131300024,206.121131300024,206.30414300001576,206.3203016000043,208.1051443000033,x,1,0.5238884999998845,0.2685300000011921,,000018,001,2024-10-10_13h38.35.725,cpt_test,2024.2.2,59.977496446537565,2024-10-10 13h40.16.268130 -0600,
30,I,0,None,29,29,0,None,1,,,0,29,29,29,208.11914750002325,,,,,,,,,,,208.10531720001018,208.11914750002325,208.11914750002325,208.30249980001827,208.31876290001674,210.10339960001875,None,1,,,,000018,001,2024-10-10_13h38.35.725,cpt_test,2024.2.2,59.977496446537565,2024-10-10 13h40.16.268130 -0600,
31,F,0,None,30,30,0,None,1,,,0,30,30,30,210.12136960000498,,,,,,,,,,,210.10355330002494,210.12136960000498,210.12136960000498,210.30089140002383,210.3336281000229,212.1016950000194,None,1,,,,000018,001,2024-10-10_13h38.35.725,cpt_test,2024.2.2,59.977496446537565,2024-10-10 13h40.16.268130 -0600,
32,M,0,None,31,31,0,None,1,,,0,31,31,31,212.12014640000416,,,,,,,,,,,212.10184119999758,212.12014640000416,212.12014640000416,212.3161858000094,212.33219410001766,214.1170395000081,None,1,,,,000018,001,2024-10-10_13h38.35.725,cpt_test,2024.2.2,59.977496446537565,2024-10-10 13h40.16.268130 -0600,
33,T,0,None,32,32,0,None,1,,,0,32,32,32,214.13101320000715,,,,,,,,,,,214.11720790000982,214.13101320000715,214.13101320000715,214.31438660001731,214.3306877000141,216.11514750000788,None,1,,,,000018,001,2024-10-10_13h38.35.725,cpt_test,2024.2.2,59.977496446537565,2024-10-10 13h40.16.268130 -0600,
34,A,0,None,33,33,0,None,1,,,0,33,33,33,216.12940160001745,,,,,,,,,,,216.11533670002245,216.12940160001745,216.12940160001745,216.3125748000166,216.32911030002288,218.1127689999994,None,1,,,,000018,001,2024-10-10_13h38.35.725,cpt_test,2024.2.2,59.977496446537565,2024-10-10 13h40.16.268130 -0600,
35,E,0,None,34,34,0,None,1,,,0,34,34,34,218.12935740000103,,,,,,,,,,,218.1129144000006,218.12935740000103,218.12935740000103,218.31056360001094,218.34364380000625,220.11195600000792,None,1,,,,000018,001,2024-10-10_13h38.35.725,cpt_test,2024.2.2,59.977496446537565,2024-10-10 13h40.16.268130 -0600,
36,X,1,x,35,35,0,x,1,0.47099549998529255,0.2372685000009369,0,35,35,35,220.1262274000037,,,,,,,,,,,220.1121092000103,220.1262274000037,220.1262274000037,220.30921460001264,220.32575889999862,222.11006540001836,x,1,0.47099549998529255,0.2372685000009369,,000018,001,2024-10-10_13h38.35.725,cpt_test,2024.2.2,59.977496446537565,2024-10-10 13h40.16.268130 -0600,
37,A,0,None,36,36,0,None,1,,,0,36,36,36,222.1243422999978,,,,,,,,,,,222.11022040000535,222.1243422999978,222.1243422999978,222.30760120000923,222.3239242999989,224.10877650001203,None,1,,,,000018,001,2024-10-10_13h38.35.725,cpt_test,2024.2.2,59.977496446537565,2024-10-10 13h40.16.268130 -0600,
38,S,0,None,37,37,0,None,1,,,0,37,37,37,224.1229514000006,,,,,,,,,,,224.10894090001239,224.1229514000006,224.1229514000006,224.30575210001552,224.32206910001696,226.10713440002291,None,1,,,,000018,001,2024-10-10_13h38.35.725,cpt_test,2024.2.2,59.977496446537565,2024-10-10 13h40.16.268130 -0600,
39,U,0,None,38,38,0,None,1,,,0,38,38,38,226.12570470001083,,,,,,,,,,,226.10730590001913,226.12570470001083,226.12570470001083,226.30414250001195,226.33710090001114,228.10504090000177,None,1,,,,000018,001,2024-10-10_13h38.35.725,cpt_test,2024.2.2,59.977496446537565,2024-10-10 13h40.16.268130 -0600,
40,U,0,None,39,39,0,None,1,,,0,39,39,39,228.11980810001842,,,,,,,,,,,228.10518500002217,228.11980810001842,228.11980810001842,228.30269650000264,228.31935659999726,230.103795300005,None,1,,,,000018,001,2024-10-10_13h38.35.725,cpt_test,2024.2.2,59.977496446537565,2024-10-10 13h40.16.268130 -0600,
41,Q,0,None,40,40,0,None,1,,,0,40,40,40,230.12284440000076,,,,,,,,,,,230.1039542000217,230.12284440000076,230.12284440000076,230.30118830001447,230.3339065000182,232.1014888000209,None,1,,,,000018,001,2024-10-10_13h38.35.725,cpt_test,2024.2.2,59.977496446537565,2024-10-10 13h40.16.268130 -0600,
42,E,0,None,41,41,0,None,1,,,0,41,41,41,232.11667790001957,,,,,,,,,,,232.1016321000061,232.11667790001957,232.11667790001957,232.3157410999993,232.3157410999993,234.11711160000414,None,1,,,,000018,001,2024-10-10_13h38.35.725,cpt_test,2024.2.2,59.977496446537565,2024-10-10 13h40.16.268130 -0600,
43,B,0,None,42,42,0,None,1,,,0,42,42,42,234.1347835000197,,,,,,,,,,,234.11727370001609,234.1347835000197,234.1347835000197,234.31454980000854,234.34728840002208,236.1151652999979,None,1,,,,000018,001,2024-10-10_13h38.35.725,cpt_test,2024.2.2,59.977496446537565,2024-10-10 13h40.16.268130 -0600,
44,O,0,None,43,43,0,None,1,,,0,43,43,43,236.12949570000637,,,,,,,,,,,236.11531750002177,236.12949570000637,236.12949570000637,236.3127008000156,236.32898660001229,238.11375020002015,None,1,,,,000018,001,2024-10-10_13h38.35.725,cpt_test,2024.2.2,59.977496446537565,2024-10-10 13h40.16.268130 -0600,
45,E,0,None,44,44,0,None,1,,,0,44,44,44,238.12811270001112,,,,,,,,,,,238.11391169999843,238.12811270001112,238.12811270001112,238.3111130000034,238.32742370001506,240.1120290000108,None,1,,,,000018,001,2024-10-10_13h38.35.725,cpt_test,2024.2.2,59.977496446537565,2024-10-10 13h40.16.268130 -0600,
46,F,0,None,45,45,0,None,1,,,0,45,45,45,240.1263521000219,,,,,,,,,,,240.1121819000109,240.1263521000219,240.1263521000219,240.30955730000278,240.3258102000109,242.110465500009,None,1,,,,000018,001,2024-10-10_13h38.35.725,cpt_test,2024.2.2,59.977496446537565,2024-10-10 13h40.16.268130 -0600,
47,V,0,None,46,46,0,None,1,,,0,46,46,46,242.128572000016,,,,,,,,,,,242.11062190000666,242.128572000016,242.128572000016,242.30766760002007,242.34100480002235,244.10912550002104,None,1,,,,000018,001,2024-10-10_13h38.35.725,cpt_test,2024.2.2,59.977496446537565,2024-10-10 13h40.16.268130 -0600,
48,X,1,x,47,47,0,x,1,0.4868580999900587,0.22738850000314415,0,47,47,47,244.1229310000199,,,,,,,,,,,244.10933760000626,244.1229310000199,244.1229310000199,244.30602630000794,244.3226171999995,246.10717050000676,x,1,0.4868580999900587,0.22738850000314415,,000018,001,2024-10-10_13h38.35.725,cpt_test,2024.2.2,59.977496446537565,2024-10-10 13h40.16.268130 -0600,
49,X,1,x,48,48,0,x,1,0.5272665999946184,0.23789439999382012,0,48,48,48,246.1212280000036,,,,,,,,,,,246.10734390001744,246.1212280000036,246.1212280000036,246.3044950000185,246.321054,248.1051319000253,x,1,0.5272665999946184,0.23789439999382012,,000018,001,2024-10-10_13h38.35.725,cpt_test,2024.2.2,59.977496446537565,2024-10-10 13h40.16.268130 -0600,
50,C,0,None,49,49,0,None,1,,,0,49,49,49,248.12216060000355,,,,,,,,,,,248.10527970001567,248.12216060000355,248.12216060000355,248.3031957000203,248.33632890001172,250.10385140002472,None,1,,,,000018,001,2024-10-10_13h38.35.725,cpt_test,2024.2.2,59.977496446537565,2024-10-10 13h40.16.268130 -0600,
51,M,0,None,50,50,0,None,1,,,0,50,50,50,250.11828070000047,,,,,,,,,,,250.1040279000008,250.11828070000047,250.11828070000047,250.30153920000885,250.3177190000133,252.1021938000049,None,1,,,,000018,001,2024-10-10_13h38.35.725,cpt_test,2024.2.2,59.977496446537565,2024-10-10 13h40.16.268130 -0600,
52,D,0,None,51,51,0,None,1,,,0,51,51,51,252.11623750001309,,,,,,,,,,,252.10233819999848,252.11623750001309,252.11623750001309,252.31608970000525,252.31608970000525,254.11703260001377,None,1,,,,000018,001,2024-10-10_13h38.35.725,cpt_test,2024.2.2,59.977496446537565,2024-10-10 13h40.16.268130 -0600,
53,X,1,x,52,52,0,x,1,0.5185028999985661,0.2655514999933075,0,52,52,52,254.13130290000117,,,,,,,,,,,254.11718500001007,254.13130290000117,254.13130290000117,254.31461530001252,254.33122190000722,256.1152673000179,x,1,0.5185028999985661,0.2655514999933075,,000018,001,2024-10-10_13h38.35.725,cpt_test,2024.2.2,59.977496446537565,2024-10-10 13h40.16.268130 -0600,
54,K,0,None,53,53,0,None,1,,,0,53,53,53,256.13288410002133,,,,,,,,,,,256.1154126000183,256.13288410002133,256.13288410002133,256.313003200019,256.34587920000195,258.11459570002626,None,1,,,,000018,001,2024-10-10_13h38.35.725,cpt_test,2024.2.2,59.977496446537565,2024-10-10 13h40.16.268130 -0600,
55,X,1,x,54,54,0,x,1,0.5537376000138465,0.26891109999269247,0,54,54,54,258.1279637000116,,,,,,,,,,,258.11481280002045,258.1279637000116,258.1279637000116,258.31143080000766,258.32767940001213,260.1129215999972,x,1,0.5537376000138465,0.26891109999269247,,000018,001,2024-10-10_13h38.35.725,cpt_test,2024.2.2,59.977496446537565,2024-10-10 13h40.16.268130 -0600,
56,N,0,None,55,55,0,None,1,,,0,55,55,55,260.1331618000113,,,,,,,,,,,260.1131278000248,260.1331618000113,260.1331618000113,260.3098868000088,260.34257190002245,262.11132590001216,None,1,,,,000018,001,2024-10-10_13h38.35.725,cpt_test,2024.2.2,59.977496446537565,2024-10-10 13h40.16.268130 -0600,
57,M,0,None,56,56,0,None,1,,,0,56,56,56,262.1250181000214,,,,,,,,,,,262.1115134000138,262.1250181000214,262.1250181000214,262.30789760002517,262.324420000019,264.1090816000069,None,1,,,,000018,001,2024-10-10_13h38.35.725,cpt_test,2024.2.2,59.977496446537565,2024-10-10 13h40.16.268130 -0600,
58,X,1,x,57,57,0,x,1,0.5489154999959283,0.24241959999199025,0,57,57,57,264.12344730002224,,,,,,,,,,,264.10922380001284,264.12344730002224,264.12344730002224,264.3061863000039,264.32258580002235,266.1071505,x,1,0.5489154999959283,0.24241959999199025,,000018,001,2024-10-10_13h38.35.725,cpt_test,2024.2.2,59.977496446537565,2024-10-10 13h40.16.268130 -0600,
59,F,0,None,58,58,0,None,1,,,0,58,58,58,266.12166520001483,,,,,,,,,,,266.10730380000314,266.12166520001483,266.12166520001483,266.304689600016,266.32127100002253,268.1054786000168,None,1,,,,000018,001,2024-10-10_13h38.35.725,cpt_test,2024.2.2,59.977496446537565,2024-10-10 13h40.16.268130 -0600,
60,A,0,None,59,59,0,None,1,,,0,59,59,59,268.1198910000094,,,,,,,,,,,268.1056320000207,268.1198910000094,268.1198910000094,268.3029792000016,268.3194698000152,270.1040157000243,None,1,,,,000018,001,2024-10-10_13h38.35.725,cpt_test,2024.2.2,59.977496446537565,2024-10-10 13h40.16.268130 -0600,
61,X,1,x,60,60,0,x,1,0.3482652000093367,0.2492674000095576,0,60,60,60,270.1181349000253,,,,,,,,,,,270.10417810000945,270.1181349000253,270.1181349000253,270.30158890000894,270.3178649000183,272.10252300000866,x,1,0.3482652000093367,0.2492674000095576,,000018,001,2024-10-10_13h38.35.725,cpt_test,2024.2.2,59.977496446537565,2024-10-10 13h40.16.268130 -0600,
62,V,0,None,61,61,0,None,1,,,0,61,61,61,272.116843100026,,,,,,,,,,,272.10268370000995,272.116843100026,272.116843100026,272.299928500026,272.3162582000077,274.1008365000016,None,1,,,,000018,001,2024-10-10_13h38.35.725,cpt_test,2024.2.2,59.977496446537565,2024-10-10 13h40.16.268130 -0600,
63,U,0,None,62,62,0,None,1,,,0,62,62,62,274.115146600001,,,,,,,,,,,274.1009927999985,274.115146600001,274.115146600001,274.31453319999855,274.31453319999855,276.11560160000226,None,1,,,,000018,001,2024-10-10_13h38.35.725,cpt_test,2024.2.2,59.977496446537565,2024-10-10 13h40.16.268130 -0600,
64,M,0,None,63,63,0,None,1,,,0,63,63,63,276.12993920000736,,,,,,,,,,,276.11577140001464,276.12993920000736,276.12993920000736,276.3132881000056,276.32934840000235,278.1142090000212,None,1,,,,000018,001,2024-10-10_13h38.35.725,cpt_test,2024.2.2,59.977496446537565,2024-10-10 13h40.16.268130 -0600,
65,X,1,x,64,64,0,x,1,0.38576109998393804,0.2567099000152666,0,64,64,64,278.1284631000017,,,,,,,,,,,278.1143663000257,278.1284631000017,278.1284631000017,278.31181240000296,278.3278140000184,280.1125532000151,x,1,0.38576109998393804,0.2567099000152666,,000018,001,2024-10-10_13h38.35.725,cpt_test,2024.2.2,59.977496446537565,2024-10-10 13h40.16.268130 -0600,
66,A,0,None,65,65,0,None,1,,,0,65,65,65,280.1266813999973,,,,,,,,,,,280.11272460001055,280.1266813999973,280.1266813999973,280.3097022000002,280.3263238000218,282.11062240001047,None,1,,,,000018,001,2024-10-10_13h38.35.725,cpt_test,2024.2.2,59.977496446537565,2024-10-10 13h40.16.268130 -0600,
67,N,0,None,66,66,0,None,1,,,0,66,66,66,282.12524960000883,,,,,,,,,,,282.11078670001007,282.12524960000883,282.12524960000883,282.30831439999747,282.3248997000046,284.109136700019,None,1,,,,000018,001,2024-10-10_13h38.35.725,cpt_test,2024.2.2,59.977496446537565,2024-10-10 13h40.16.268130 -0600,
68,H,0,None,67,67,0,None,1,,,0,67,67,67,284.1274713000166,,,,,,,,,,,284.109274300019,284.1274713000166,284.1274713000166,284.30654550000327,284.33968940001796,286.10740730000543,None,1,,,,000018,001,2024-10-10_13h38.35.725,cpt_test,2024.2.2,59.977496446537565,2024-10-10 13h40.16.268130 -0600,
69,A,0,None,68,68,0,None,1,,,0,68,68,68,286.1219180000189,,,,,,,,,,,286.1075774000201,286.1219180000189,286.1219180000189,286.30514530002256,286.32128520001424,288.10575660000904,None,1,,,,000018,001,2024-10-10_13h38.35.725,cpt_test,2024.2.2,59.977496446537565,2024-10-10 13h40.16.268130 -0600,
70,X,1,x,69,69,0,x,1,0.45797960000345483,0.2456201000022702,0,69,69,69,288.1201003000024,,,,,,,,,,,288.1059063000139,288.1201003000024,288.1201003000024,288.30333480000263,288.3195881000138,290.1042652000033,x,1,0.45797960000345483,0.2456201000022702,,000018,001,2024-10-10_13h38.35.725,cpt_test,2024.2.2,59.977496446537565,2024-10-10 13h40.16.268130 -0600,
71,F,0,None,70,70,0,None,1,,,0,70,70,70,290.11856870001066,,,,,,,,,,,290.10446349999984,290.11856870001066,290.11856870001066,290.30145410000114,290.3180388000037,292.10304720001295,None,1,,,,000018,001,2024-10-10_13h38.35.725,cpt_test,2024.2.2,59.977496446537565,2024-10-10 13h40.16.268130 -0600,
72,N,0,None,71,71,0,None,1,,,0,71,71,71,292.1171839000017,,,,,,,,,,,292.10322310001357,292.1171839000017,292.1171839000017,292.30009830000927,292.3164097999979,294.1011646000261,None,1,,,,000018,001,2024-10-10_13h38.35.725,cpt_test,2024.2.2,59.977496446537565,2024-10-10 13h40.16.268130 -0600,
73,K,0,None,72,72,0,None,1,,,0,72,72,72,294.11493900002097,,,,,,,,,,,294.1013281000196,294.11493900002097,294.11493900002097,294.3146135999996,294.3146135999996,296.1159409000247,None,1,,,,000018,001,2024-10-10_13h38.35.725,cpt_test,2024.2.2,59.977496446537565,2024-10-10 13h40.16.268130 -0600,
74,Y,0,None,73,73,0,None,1,,,0,73,73,73,296.13023080001585,,,,,,,,,,,296.11610540002584,296.13023080001585,296.13023080001585,296.31348230000003,296.32942210001056,298.1143179000064,None,1,,,,000018,001,2024-10-10_13h38.35.725,cpt_test,2024.2.2,59.977496446537565,2024-10-10 13h40.16.268130 -0600,
75,Y,0,None,74,74,0,None,1,,,0,74,74,74,298.1286049000046,,,,,,,,,,,298.11448129999917,298.1286049000046,298.1286049000046,298.31179070001235,298.32815720001236,300.11252180000884,None,1,,,,000018,001,2024-10-10_13h38.35.725,cpt_test,2024.2.2,59.977496446537565,2024-10-10 13h40.16.268130 -0600,
76,R,0,None,75,75,0,None,1,,,0,75,75,75,300.1267922000261,,,,,,,,,,,300.11268270001165,300.1267922000261,300.1267922000261,300.310089400009,300.3266091000114,302.11100380000426,None,1,,,,000018,001,2024-10-10_13h38.35.725,cpt_test,2024.2.2,59.977496446537565,2024-10-10 13h40.16.268130 -0600,
77,X,1,x,76,76,0,x,1,0.6639681999804452,0.22845049999887124,0,76,76,76,302.12541510001756,,,,,,,,,,,302.1111633000255,302.12541510001756,302.12541510001756,302.30854520000867,302.32481030002236,304.1098280000151,x,1,0.6639681999804452,0.22845049999887124,,000018,001,2024-10-10_13h38.35.725,cpt_test,2024.2.2,59.977496446537565,2024-10-10 13h40.16.268130 -0600,
78,R,0,None,77,77,0,None,1,,,0,77,77,77,304.1235569000128,,,,,,,,,,,304.11000510002486,304.1235569000128,304.1235569000128,304.30664180000895,304.32297100001597,306.10799380001845,None,1,,,,000018,001,2024-10-10_13h38.35.725,cpt_test,2024.2.2,59.977496446537565,2024-10-10 13h40.16.268130 -0600,
79,F,0,None,78,78,0,None,1,,,0,78,78,78,306.12177800000063,,,,,,,,,,,306.1081621000194,306.12177800000063,306.12177800000063,306.305230900005,306.32161690000794,308.10624170000665,None,1,,,,000018,001,2024-10-10_13h38.35.725,cpt_test,2024.2.2,59.977496446537565,2024-10-10 13h40.16.268130 -0600,
80,K,0,None,79,79,0,None,1,,,0,79,79,79,308.12012340000365,,,,,,,,,,,308.10641510001733,308.12012340000365,308.12012340000365,308.30346020002617,308.3195886000176,310.1044069000054,None,1,,,,000018,001,2024-10-10_13h38.35.725,cpt_test,2024.2.2,59.977496446537565,2024-10-10 13h40.16.268130 -0600,
81,O,0,None,80,80,0,None,1,,,0,80,80,80,310.1185706000251,,,,,,,,,,,310.1045573000156,310.1185706000251,310.1185706000251,310.30187500000466,310.318357000011,312.1026512000244,None,1,,,,000018,001,2024-10-10_13h38.35.725,cpt_test,2024.2.2,59.977496446537565,2024-10-10 13h40.16.268130 -0600,
82,F,0,None,81,81,0,None,1,,,0,81,81,81,312.1172379000054,,,,,,,,,,,312.102805100003,312.1172379000054,312.1172379000054,312.2999494000105,312.3165338000108,314.1012244000158,None,1,,,,000018,001,2024-10-10_13h38.35.725,cpt_test,2024.2.2,59.977496446537565,2024-10-10 13h40.16.268130 -0600,
83,F,0,None,82,82,0,None,1,,,0,82,82,82,314.11563220000244,,,,,,,,,,,314.10136880000937,314.11563220000244,314.11563220000244,314.3150451000256,314.3150451000256,316.116227600025,None,1,,,,000018,001,2024-10-10_13h38.35.725,cpt_test,2024.2.2,59.977496446537565,2024-10-10 13h40.16.268130 -0600,
84,W,0,None,83,83,0,None,1,,,0,83,83,83,316.1364350000222,,,,,,,,,,,316.1163934000069,316.1364350000222,316.1364350000222,316.3138237000094,316.3464203000185,318.114277900022,None,1,,,,000018,001,2024-10-10_13h38.35.725,cpt_test,2024.2.2,59.977496446537565,2024-10-10 13h40.16.268130 -0600,
85,X,1,x,84,84,0,x,1,0.5608084000123199,0.2552621999930125,0,84,84,84,318.1285379000183,,,,,,,,,,,318.1144542999973,318.1285379000183,318.1285379000183,318.3118247000093,318.3282772000239,320.11267520001275,x,1,0.5608084000123199,0.2552621999930125,,000018,001,2024-10-10_13h38.35.725,cpt_test,2024.2.2,59.977496446537565,2024-10-10 13h40.16.268130 -0600,
86,J,0,None,85,85,0,None,1,,,0,85,85,85,320.12708630002453,,,,,,,,,,,320.11282450001454,320.12708630002453,320.12708630002453,320.31015040000784,320.3266823000158,322.1109791000199,None,1,,,,000018,001,2024-10-10_13h38.35.725,cpt_test,2024.2.2,59.977496446537565,2024-10-10 13h40.16.268130 -0600,
87,N,0,None,86,86,0,None,1,,,0,86,86,86,322.125606400019,,,,,,,,,,,322.1111279000179,322.125606400019,322.125606400019,322.30872760000057,322.32485820000875,324.1098839000042,None,1,,,,000018,001,2024-10-10_13h38.35.725,cpt_test,2024.2.2,59.977496446537565,2024-10-10 13h40.16.268130 -0600,
88,X,1,x,87,87,0,x,1,0.6127849000040442,0.2679587999882642,0,87,87,87,324.1237434000068,,,,,,,,,,,324.11005460002343,324.1237434000068,324.1237434000068,324.3070499000023,324.32330640000873,326.10782930001733,x,1,0.6127849000040442,0.2679587999882642,,000018,001,2024-10-10_13h38.35.725,cpt_test,2024.2.2,59.977496446537565,2024-10-10 13h40.16.268130 -0600,
89,T,0,None,88,88,0,None,1,,,0,88,88,88,326.1220696000091,,,,,,,,,,,326.10798990001786,326.1220696000091,326.1220696000091,326.30508350001764,326.3215881000215,328.10638760001166,None,1,,,,000018,001,2024-10-10_13h38.35.725,cpt_test,2024.2.2,59.977496446537565,2024-10-10 13h40.16.268130 -0600,
90,I,0,None,89,89,0,None,1,,,0,89,89,89,328.1201321000117,,,,,,,,,,,328.1065426999994,328.1201321000117,328.1201321000117,328.3034658000106,328.31979780000984,330.10472480001044,None,1,,,,000018,001,2024-10-10_13h38.35.725,cpt_test,2024.2.2,59.977496446537565,2024-10-10 13h40.16.268130 -0600,
91,P,0,None,90,90,0,None,1,,,0,90,90,90,330.1186077000166,,,,,,,,,,,330.1048879000009,330.1186077000166,330.1186077000166,330.3020436000079,330.31840760001796,332.1028662000026,None,1,,,,000018,001,2024-10-10_13h38.35.725,cpt_test,2024.2.2,59.977496446537565,2024-10-10 13h40.16.268130 -0600,
92,X,1,x,91,91,0,x,1,0.5569204999774229,0.2508181000011973,0,91,91,91,332.1170480000146,,,,,,,,,,,332.1030334000243,332.1170480000146,332.1170480000146,332.300155600009,332.3165754000074,334.1021669000038,x,1,0.5569204999774229,0.2508181000011973,,000018,001,2024-10-10_13h38.35.725,cpt_test,2024.2.2,59.977496446537565,2024-10-10 13h40.16.268130 -0600,
93,B,0,None,92,92,0,None,1,,,0,92,92,92,334.1153102000244,,,,,,,,,,,334.10239370001364,334.1153102000244,334.1153102000244,334.3150169000146,334.3150169000146,336.1176000999985,None,1,,,,000018,001,2024-10-10_13h38.35.725,cpt_test,2024.2.2,59.977496446537565,2024-10-10 13h40.16.268130 -0600,
94,M,0,None,93,93,0,None,1,,,0,93,93,93,336.1308956000139,,,,,,,,,,,336.11782510002377,336.1308956000139,336.1308956000139,336.3136254000128,336.32981320002,338.1151604000188,None,1,,,,000018,001,2024-10-10_13h38.35.725,cpt_test,2024.2.2,59.977496446537565,2024-10-10 13h40.16.268130 -0600,
95,B,0,None,94,94,0,None,1,,,0,94,94,94,338.12924629999907,,,,,,,,,,,338.1153438000183,338.12924629999907,338.12924629999907,338.3119919000019,338.32884590001777,340.1141025000252,None,1,,,,000018,001,2024-10-10_13h38.35.725,cpt_test,2024.2.2,59.977496446537565,2024-10-10 13h40.16.268130 -0600,
96,I,0,None,95,95,0,None,1,,,0,95,95,95,340.1273498000228,,,,,,,,,,,340.1143195000186,340.1273498000228,340.1273498000228,340.3101091000135,340.3269196000183,342.1123368999979,None,1,,,,000018,001,2024-10-10_13h38.35.725,cpt_test,2024.2.2,59.977496446537565,2024-10-10 13h40.16.268130 -0600,
97,X,1,x,96,96,0,x,1,0.4928613999800291,0.24086560000432655,0,96,96,96,342.12568760002614,,,,,,,,,,,342.1125455000147,342.12568760002614,342.12568760002614,342.3089190000028,342.3250718000054,344.10997380001936,x,1,0.4928613999800291,0.24086560000432655,,000018,001,2024-10-10_13h38.35.725,cpt_test,2024.2.2,59.977496446537565,2024-10-10 13h40.16.268130 -0600,
98,J,0,None,97,97,0,None,1,,,0,97,97,97,344.1238619000069,,,,,,,,,,,344.1101314999978,344.1238619000069,344.1238619000069,344.30708759999834,344.3234501000261,346.10879710002337,None,1,,,,000018,001,2024-10-10_13h38.35.725,cpt_test,2024.2.2,59.977496446537565,2024-10-10 13h40.16.268130 -0600,
99,X,1,x,98,98,0,x,1,0.7740552999894135,0.23359070002334192,0,98,98,98,346.12213970001903,,,,,,,,,,,346.10898390001967,346.12213970001903,346.12213970001903,346.3055912000127,346.32180080001126,348.10660290002124,x,1,0.7740552999894135,0.23359070002334192,,000018,001,2024-10-10_13h38.35.725,cpt_test,2024.2.2,59.977496446537565,2024-10-10 13h40.16.268130 -0600,
100,U,0,None,99,99,0,None,1,,,0,99,99,99,348.12058060002164,,,,,,,,,,,348.1067854000139,348.12058060002164,348.12058060002164,348.3036311000178,348.3202157000196,350.1050851000182,None,1,,,,000018,001,2024-10-10_13h38.35.725,cpt_test,2024.2.2,59.977496446537565,2024-10-10 13h40.16.268130 -0600,
101,D,0,None,100,100,0,None,1,,,0,100,100,100,350.11903230001917,,,,,,,,,,,350.10527540001203,350.11903230001917,350.11903230001917,350.30229110000073,350.31851320000715,352.10418150000623,None,1,,,,000018,001,2024-10-10_13h38.35.725,cpt_test,2024.2.2,59.977496446537565,2024-10-10 13h40.16.268130 -0600,
102,X,1,x,101,101,0,x,1,0.5368084999790881,0.2650936999998521,0,101,101,101,352.11721690002014,,,,,,,,,,,352.1044255000015,352.11721690002014,352.11721690002014,352.30059980001533,352.3169845000084,354.1030258000246,x,1,0.5368084999790881,0.2650936999998521,,000018,001,2024-10-10_13h38.35.725,cpt_test,2024.2.2,59.977496446537565,2024-10-10 13h40.16.268130 -0600,
103,X,1,x,102,102,0,x,1,0.5455303000053391,0.26012900000205263,0,102,102,102,354.1156370000099,,,,,,,,,,,354.1032665000239,354.1156370000099,354.1156370000099,354.3151501000102,354.3151501000102,356.1171200000099,x,1,0.5455303000053391,0.26012900000205263,,000018,001,2024-10-10_13h38.35.725,cpt_test,2024.2.2,59.977496446537565,2024-10-10 13h40.16.268130 -0600,
104,N,0,None,103,103,0,None,1,,,0,103,103,103,356.13081990001956,,,,,,,,,,,356.11731990001863,356.13081990001956,356.13081990001956,356.3139545000158,356.3303111999994,358.1163185000187,None,1,,,,000018,001,2024-10-10_13h38.35.725,cpt_test,2024.2.2,59.977496446537565,2024-10-10 13h40.16.268130 -0600,
105,U,0,None,104,104,0,None,1,,,0,104,104,104,358.1292279000045,,,,,,,,,,,358.11656410002615,358.1292279000045,358.1292279000045,358.31241860002046,358.3285038000031,360.11412540002493,None,1,,,,000018,001,2024-10-10_13h38.35.725,cpt_test,2024.2.2,59.977496446537565,2024-10-10 13h40.16.268130 -0600,
106,T,0,None,105,105,0,None,1,,,0,105,105,105,360.12769110000227,,,,,,,,,,,360.1143182000087,360.12769110000227,360.12769110000227,360.3104172000021,360.3268246000225,362.112363000022,None,1,,,,000018,001,2024-10-10_13h38.35.725,cpt_test,2024.2.2,59.977496446537565,2024-10-10 13h40.16.268130 -0600,
107,W,0,None,106,106,0,None,1,,,0,106,106,106,362.1259363999998,,,,,,,,,,,362.112566100026,362.1259363999998,362.1259363999998,362.3092255000083,362.3252909000148,364.1103581000061,None,1,,,,000018,001,2024-10-10_13h38.35.725,cpt_test,2024.2.2,59.977496446537565,2024-10-10 13h40.16.268130 -0600,
108,N,0,None,107,107,0,None,1,,,0,107,107,107,364.1243646000221,,,,,,,,,,,364.11051610001596,364.1243646000221,364.1243646000221,364.3073834000097,364.32386340000085,366.10874950001016,None,1,,,,000018,001,2024-10-10_13h38.35.725,cpt_test,2024.2.2,59.977496446537565,2024-10-10 13h40.16.268130 -0600,
109,R,0,None,108,108,0,None,1,,,0,108,108,108,366.12238030001754,,,,,,,,,,,366.1088897000009,366.12238030001754,366.12238030001754,366.3058171000157,366.32196020000265,368.10754230001476,None,1,,,,000018,001,2024-10-10_13h38.35.725,cpt_test,2024.2.2,59.977496446537565,2024-10-10 13h40.16.268130 -0600,
110,X,1,x,109,109,0,x,1,0.5827104999916628,0.25951199998962693,0,109,109,109,368.1210012000229,,,,,,,,,,,368.10774440001114,368.1210012000229,368.1210012000229,368.3041181000008,368.320537600026,370.105919499998,x,1,0.5827104999916628,0.25951199998962693,,000018,001,2024-10-10_13h38.35.725,cpt_test,2024.2.2,59.977496446537565,2024-10-10 13h40.16.268130 -0600,
111,A,0,None,110,110,0,None,1,,,0,110,110,110,370.11922950000735,,,,,,,,,,,370.10613870000816,370.11922950000735,370.11922950000735,370.3025069000141,370.3185842000239,372.1034295000136,None,1,,,,000018,001,2024-10-10_13h38.35.725,cpt_test,2024.2.2,59.977496446537565,2024-10-10 13h40.16.268130 -0600,
112,X,1,x,111,111,0,x,1,0.42193569999653846,0.26604889999725856,0,111,111,111,372.11750410002423,,,,,,,,,,,372.1035927000048,372.11750410002423,372.11750410002423,372.3007169000048,372.317229200009,374.10239290000754,x,1,0.42193569999653846,0.26604889999725856,,000018,001,2024-10-10_13h38.35.725,cpt_test,2024.2.2,59.977496446537565,2024-10-10 13h40.16.268130 -0600,
113,G,0,None,112,112,0,None,1,,,0,112,112,112,374.11607950000325,,,,,,,,,,,374.10260510002263,374.11607950000325,374.11607950000325,374.3153429000231,374.3153429000231,376.1174307000183,None,1,,,,000018,001,2024-10-10_13h38.35.725,cpt_test,2024.2.2,59.977496446537565,2024-10-10 13h40.16.268130 -0600,
114,O,0,None,113,113,0,None,1,,,0,113,113,113,376.131128900015,,,,,,,,,,,376.1176250000135,376.131128900015,376.131128900015,376.3142449000152,376.33049610001035,378.11564480001107,None,1,,,,000018,001,2024-10-10_13h38.35.725,cpt_test,2024.2.2,59.977496446537565,2024-10-10 13h40.16.268130 -0600,
115,U,0,None,114,114,0,None,1,,,0,114,114,114,378.1294338000007,,,,,,,,,,,378.1158263000252,378.1294338000007,378.1294338000007,378.3125634000171,378.32867540000007,380.1143012000248,None,1,,,,000018,001,2024-10-10_13h38.35.725,cpt_test,2024.2.2,59.977496446537565,2024-10-10 13h40.16.268130 -0600,
116,X,1,x,115,115,0,x,1,0.4882892999739852,0.2856138000206556,0,115,115,115,380.12763530001394,,,,,,,,,,,380.1145016000082,380.12763530001394,380.12763530001394,380.31072090001544,380.32718100000056,382.11190879999776,x,1,0.4882892999739852,0.2856138000206556,,000018,001,2024-10-10_13h38.35.725,cpt_test,2024.2.2,59.977496446537565,2024-10-10 13h40.16.268130 -0600,
117,X,1,x,116,116,0,x,1,0.5749469000147656,0.2561060999869369,0,116,116,116,382.1260722000152,,,,,,,,,,,382.1120782000071,382.1260722000152,382.1260722000152,382.3089440000185,382.32558240002254,384.1101802000194,x,1,0.5749469000147656,0.2561060999869369,,000018,001,2024-10-10_13h38.35.725,cpt_test,2024.2.2,59.977496446537565,2024-10-10 13h40.16.268130 -0600,
118,C,0,None,117,117,0,None,1,,,0,117,117,117,384.12439450001693,,,,,,,,,,,384.11034660000587,384.12439450001693,384.12439450001693,384.3076854000101,384.32388670000364,386.10876070000813,None,1,,,,000018,001,2024-10-10_13h38.35.725,cpt_test,2024.2.2,59.977496446537565,2024-10-10 13h40.16.268130 -0600,
119,A,0,None,118,118,0,None,1,,,0,118,118,118,386.12275390001014,,,,,,,,,,,386.10892910000985,386.12275390001014,386.12275390001014,386.3056816000026,386.32232269999804,388.10685510002077,None,1,,,,000018,001,2024-10-10_13h38.35.725,cpt_test,2024.2.2,59.977496446537565,2024-10-10 13h40.16.268130 -0600,
120,X,1,x,119,119,0,x,1,0.45843530001002364,0.2510873999854084,0,119,119,119,388.1211394999991,,,,,,,,,,,388.1070159000228,388.1211394999991,388.1211394999991,388.3043703000003,388.3204623000056,390.10543080000207,x,1,0.45843530001002364,0.2510873999854084,,000018,001,2024-10-10_13h38.35.725,cpt_test,2024.2.2,59.977496446537565,2024-10-10 13h40.16.268130 -0600,
121,H,0,None,120,120,0,None,1,,,0,120,120,120,390.1191839000094,,,,,,,,,,,390.1055996000068,390.1191839000094,390.1191839000094,390.3024392000225,390.31882060001954,392.10329690002254,None,1,,,,000018,001,2024-10-10_13h38.35.725,cpt_test,2024.2.2,59.977496446537565,2024-10-10 13h40.16.268130 -0600,
122,M,0,None,121,121,0,None,1,,,0,121,121,121,392.11790589999873,,,,,,,,,,,392.1034458000213,392.11790589999873,392.11790589999873,392.3007257000136,392.3171615000174,394.102203300019,None,1,,,,000018,001,2024-10-10_13h38.35.725,cpt_test,2024.2.2,59.977496446537565,2024-10-10 13h40.16.268130 -0600,
123,V,0,None,122,122,0,None,1,,,0,122,122,122,394.1162349000224,,,,,,,,,,,394.1024069999985,394.1162349000224,394.1162349000224,394.3156290000188,394.3156290000188,396.1008578000183,None,1,,,,000018,001,2024-10-10_13h38.35.725,cpt_test,2024.2.2,59.977496446537565,2024-10-10 13h40.16.268130 -0600,
124,K,0,None,123,123,0,None,1,,,0,123,123,123,396.11437419999857,,,,,,,,,,,396.1010462999984,396.11437419999857,396.11437419999857,396.31409830000484,396.31409830000484,398.1148338000057,None,1,,,,000018,001,2024-10-10_13h38.35.725,cpt_test,2024.2.2,59.977496446537565,2024-10-10 13h40.16.268130 -0600,
125,G,0,None,124,124,0,None,1,,,0,124,124,124,398.1295288000256,,,,,,,,,,,398.11497580001014,398.1295288000256,398.1295288000256,398.31285300001036,398.32907170002,400.11346280001453,None,1,,,,000018,001,2024-10-10_13h38.35.725,cpt_test,2024.2.2,59.977496446537565,2024-10-10 13h40.16.268130 -0600,
126,A,0,None,125,125,0,None,1,,,0,125,125,125,400.1280192999984,,,,,,,,,,,400.1136432000203,400.1280192999984,400.1280192999984,400.31048830001964,400.3269721000106,402.1124624000222,None,1,,,,000018,001,2024-10-10_13h38.35.725,cpt_test,2024.2.2,59.977496446537565,2024-10-10 13h40.16.268130 -0600,
127,X,1,x,126,126,0,x,1,0.5350615999777801,0.2655320000194479,0,126,126,126,402.12625470000785,,,,,,,,,,,402.11266510002315,402.12625470000785,402.12625470000785,402.30943910000497,402.3256881000125,404.11027190001914,x,1,0.5350615999777801,0.2655320000194479,,000018,001,2024-10-10_13h38.35.725,cpt_test,2024.2.2,59.977496446537565,2024-10-10 13h40.16.268130 -0600,
128,N,0,None,127,127,0,None,1,,,0,127,127,127,404.1243175000127,,,,,,,,,,,404.1104435000161,404.1243175000127,404.1243175000127,404.3078646000067,404.32419250000385,406.1089186000172,None,1,,,,000018,001,2024-10-10_13h38.35.725,cpt_test,2024.2.2,59.977496446537565,2024-10-10 13h40.16.268130 -0600,
129,Y,0,None,128,128,0,None,1,,,0,128,128,128,406.1228562000033,,,,,,,,,,,406.1090813000046,406.1228562000033,406.1228562000033,406.3062582999992,406.32263619999867,408.1071174000099,None,1,,,,000018,001,2024-10-10_13h38.35.725,cpt_test,2024.2.2,59.977496446537565,2024-10-10 13h40.16.268130 -0600,
130,W,0,None,129,129,0,None,1,,,0,129,129,129,408.1214868000243,,,,,,,,,,,408.10728620001464,408.1214868000243,408.1214868000243,408.3048081000161,408.32074730002205,410.10558480001055,None,1,,,,000018,001,2024-10-10_13h38.35.725,cpt_test,2024.2.2,59.977496446537565,2024-10-10 13h40.16.268130 -0600,
131,L,0,None,130,130,0,None,1,,,0,130,130,130,410.1195246000134,,,,,,,,,,,410.1057394000236,410.1195246000134,410.1195246000134,410.30254950001836,410.31917810000596,412.10406870002043,None,1,,,,000018,001,2024-10-10_13h38.35.725,cpt_test,2024.2.2,59.977496446537565,2024-10-10 13h40.16.268130 -0600,
132,F,0,None,131,131,0,None,1,,,0,131,131,131,412.11809270002414,,,,,,,,,,,412.1042466000072,412.11809270002414,412.11809270002414,412.30112519999966,412.3174593000149,414.1019648000074,None,1,,,,000018,001,2024-10-10_13h38.35.725,cpt_test,2024.2.2,59.977496446537565,2024-10-10 13h40.16.268130 -0600,
133,E,0,None,132,132,0,None,1,,,0,132,132,132,414.1165410000249,,,,,,,,,,,414.1021136000054,414.1165410000249,414.1165410000249,414.3159974000009,414.3159974000009,416.1018244000152,None,1,,,,000018,001,2024-10-10_13h38.35.725,cpt_test,2024.2.2,59.977496446537565,2024-10-10 13h40.16.268130 -0600,
134,L,0,None,133,133,0,None,1,,,0,133,133,133,416.1147648000042,,,,,,,,,,,416.1020236000186,416.1147648000042,416.1147648000042,416.314065500017,416.314065500017,418.11563970000134,None,1,,,,000018,001,2024-10-10_13h38.35.725,cpt_test,2024.2.2,59.977496446537565,2024-10-10 13h40.16.268130 -0600,
135,K,0,None,134,134,0,None,1,,,0,134,134,134,418.12958740000613,,,,,,,,,,,418.11579830001574,418.12958740000613,418.12958740000613,418.3126423000067,418.3291524000233,420.1139702000073,None,1,,,,000018,001,2024-10-10_13h38.35.725,cpt_test,2024.2.2,59.977496446537565,2024-10-10 13h40.16.268130 -0600,
136,Q,0,None,135,135,0,None,1,,,0,135,135,135,420.1282669000211,,,,,,,,,,,420.11412430001656,420.1282669000211,420.1282669000211,420.31129630000214,420.32762940000976,422.11197510000784,None,1,,,,000018,001,2024-10-10_13h38.35.725,cpt_test,2024.2.2,59.977496446537565,2024-10-10 13h40.16.268130 -0600,
137,X,1,x,136,136,0,x,1,0.5841765999794006,0.2789455000020098,0,136,136,136,422.1264165000175,,,,,,,,,,,422.1121299000224,422.1264165000175,422.1264165000175,422.30966060000355,422.3257328000036,424.11057200000505,x,1,0.5841765999794006,0.2789455000020098,,000018,001,2024-10-10_13h38.35.725,cpt_test,2024.2.2,59.977496446537565,2024-10-10 13h40.16.268130 -0600,
138,J,0,None,137,137,0,None,1,,,0,137,137,137,424.1245578000089,,,,,,,,,,,424.1107352000254,424.1245578000089,424.1245578000089,424.3079249000002,424.3240989000187,426.1086549000174,None,1,,,,000018,001,2024-10-10_13h38.35.725,cpt_test,2024.2.2,59.977496446537565,2024-10-10 13h40.16.268130 -0600,
139,X,1,x,138,138,0,x,1,0.4570634000119753,0.24532069999258965,0,138,138,138,426.12311580000096,,,,,,,,,,,426.10880100002396,426.12311580000096,426.12311580000096,426.3064856000128,426.32248050000635,428.10836170002585,x,1,0.4570634000119753,0.24532069999258965,,000018,001,2024-10-10_13h38.35.725,cpt_test,2024.2.2,59.977496446537565,2024-10-10 13h40.16.268130 -0600,
140,E,0,None,139,139,0,None,1,,,0,139,139,139,428.121275100013,,,,,,,,,,,428.10857589999796,428.121275100013,428.121275100013,428.304308700026,428.3212201000133,430.1057639000064,None,1,,,,000018,001,2024-10-10_13h38.35.725,cpt_test,2024.2.2,59.977496446537565,2024-10-10 13h40.16.268130 -0600,
141,T,0,None,140,140,0,None,1,,,0,140,140,140,430.1195500000031,,,,,,,,,,,430.1059169000073,430.1195500000031,430.1195500000031,430.30292030001874,430.3196072000137,432.10385420001694,None,1,,,,000018,001,2024-10-10_13h38.35.725,cpt_test,2024.2.2,59.977496446537565,2024-10-10 13h40.16.268130 -0600,
142,X,1,x,141,141,0,x,1,0.4766620000009425,0.24653630002285354,0,141,141,141,432.1183443000191,,,,,,,,,,,432.1040064000117,432.1183443000191,432.1183443000191,432.3015535000013,432.317735300021,434.1020204000233,x,1,0.4766620000009425,0.24653630002285354,,000018,001,2024-10-10_13h38.35.725,cpt_test,2024.2.2,59.977496446537565,2024-10-10 13h40.16.268130 -0600,
143,Q,0,None,142,142,0,None,1,,,0,142,142,142,434.1164664000098,,,,,,,,,,,434.10217740002554,434.1164664000098,434.1164664000098,434.315563000011,434.315563000011,436.11723630002234,None,1,,,436.114438300021,000018,001,2024-10-10_13h38.35.725,cpt_test,2024.2.2,59.977496446537565,2024-10-10 13h40.16.268130 -0600,
144,V,0,None,143,143,0,None,1,,,0,143,143,143,436.13155440002447,,,,,,,,,,,436.11740129999816,436.13155440002447,436.13155440002447,436.3148290000099,436.33119880000595,438.115862000006,None,1,,,,000018,001,2024-10-10_13h38.35.725,cpt_test,2024.2.2,59.977496446537565,2024-10-10 13h40.16.268130 -0600,
145,Y,0,None,144,144,0,None,1,,,0,144,144,144,438.130077800015,,,,,,,,,,,438.11601610001526,438.130077800015,438.130077800015,438.3129505000252,438.32936699999846,440.1139320000075,None,1,,,,000018,001,2024-10-10_13h38.35.725,cpt_test,2024.2.2,59.977496446537565,2024-10-10 13h40.16.268130 -0600,
146,O,0,None,145,145,0,None,1,,,0,145,145,145,440.12842439999804,,,,,,,,,,,440.11407200002577,440.12842439999804,440.12842439999804,440.3111932000029,440.32758230000036,442.11217770000803,None,1,,,,000018,001,2024-10-10_13h38.35.725,cpt_test,2024.2.2,59.977496446537565,2024-10-10 13h40.16.268130 -0600,
147,T,0,None,146,146,0,None,1,,,0,146,146,146,442.12647410001955,,,,,,,,,,,442.1123188000056,442.12647410001955,442.12647410001955,442.30963160001556,442.3262705000234,444.1107199000253,None,1,,,,000018,001,2024-10-10_13h38.35.725,cpt_test,2024.2.2,59.977496446537565,2024-10-10 13h40.16.268130 -0600,
148,X,1,x,147,147,0,None,0,,,0,147,147,147,444.12490650001564,,,,,,,,,,,444.1108795000182,444.12490650001564,444.12490650001564,444.3080952000164,444.3244027000037,446.1090531000227,None,0,,,,000018,001,2024-10-10_13h38.35.725,cpt_test,2024.2.2,59.977496446537565,2024-10-10 13h40.16.268130 -0600,
149,T,0,None,148,148,0,None,1,,,0,148,148,148,446.1232604000252,,,,,,,,,,,446.10922430001665,446.1232604000252,446.1232604000252,446.30657990000327,446.322857799998,448.107471299998,None,1,,,,000018,001,2024-10-10_13h38.35.725,cpt_test,2024.2.2,59.977496446537565,2024-10-10 13h40.16.268130 -0600,
150,S,0,None,149,149,0,None,1,,,0,149,149,149,448.12156940001296,,,,,,,,,,,448.1076480000047,448.12156940001296,448.12156940001296,448.30474590000813,448.32126789999893,450.10594340000534,None,1,,,,000018,001,2024-10-10_13h38.35.725,cpt_test,2024.2.2,59.977496446537565,2024-10-10 13h40.16.268130 -0600,
151,L,0,None,150,150,0,None,1,,,0,150,150,150,450.1199825000076,,,,,,,,,,,450.10610280002584,450.1199825000076,450.1199825000076,450.30322190001607,450.31956750000245,452.10381820000475,None,1,,,,000018,001,2024-10-10_13h38.35.725,cpt_test,2024.2.2,59.977496446537565,2024-10-10 13h40.16.268130 -0600,
152,V,0,None,151,151,0,None,1,,,0,151,151,151,452.1183844000043,,,,,,,,,,,452.1039671000035,452.1183844000043,452.1183844000043,452.3015942000202,452.3179972000071,454.10280839999905,None,1,,,,000018,001,2024-10-10_13h38.35.725,cpt_test,2024.2.2,59.977496446537565,2024-10-10 13h40.16.268130 -0600,
153,C,0,None,152,152,0,None,1,,,0,152,152,152,454.11683600000106,,,,,,,,,,,454.1029826000158,454.11683600000106,454.11683600000106,454.2998193000094,454.3160842000216,456.1172432000167,None,1,,,456.1146884000045,000018,001,2024-10-10_13h38.35.725,cpt_test,2024.2.2,59.977496446537565,2024-10-10 13h40.16.268130 -0600,
154,U,0,None,153,153,0,None,1,,,0,153,153,153,456.13187400001334,,,,,,,,,,,456.1173861999996,456.13187400001334,456.13187400001334,456.31470730001456,456.33135380002204,458.11654730001464,None,1,,,,000018,001,2024-10-10_13h38.35.725,cpt_test,2024.2.2,59.977496446537565,2024-10-10 13h40.16.268130 -0600,
155,X,1,x,154,154,0,x,1,0.3869180000037886,0.2607566000078805,0,154,154,154,458.1298915000225,,,,,,,,,,,458.11672869999893,458.1298915000225,458.1298915000225,458.3133188000065,458.32941130001564,460.1142209000245,x,1,0.3869180000037886,0.2607566000078805,,000018,001,2024-10-10_13h38.35.725,cpt_test,2024.2.2,59.977496446537565,2024-10-10 13h40.16.268130 -0600,
156,X,1,x,155,155,0,x,1,0.38345579997985624,0.23373110001557507,0,155,155,155,460.128598100011,,,,,,,,,,,460.11438920002547,460.128598100011,460.128598100011,460.3115937000257,460.3280827999988,462.1124507000204,x,1,0.38345579997985624,0.23373110001557507,,000018,001,2024-10-10_13h38.35.725,cpt_test,2024.2.2,59.977496446537565,2024-10-10 13h40.16.268130 -0600,
157,L,0,None,156,156,0,None,1,,,0,156,156,156,462.12696410002536,,,,,,,,,,,462.1126037000213,462.12696410002536,462.12696410002536,462.3101140000217,462.32604730001185,464.11089950002497,None,1,,,,000018,001,2024-10-10_13h38.35.725,cpt_test,2024.2.2,59.977496446537565,2024-10-10 13h40.16.268130 -0600,
158,W,0,None,157,157,0,None,1,,,0,157,157,157,464.1251239000121,,,,,,,,,,,464.1110469000123,464.1251239000121,464.1251239000121,464.30856410000706,464.3246791000129,466.10958420002135,None,1,,,,000018,001,2024-10-10_13h38.35.725,cpt_test,2024.2.2,59.977496446537565,2024-10-10 13h40.16.268130 -0600,
159,A,0,None,158,158,0,None,1,,,0,158,158,158,466.12342730001546,,,,,,,,,,,466.1097466000065,466.12342730001546,466.12342730001546,466.3066220000037,466.3229937000142,468.1074442000245,None,1,,,,000018,001,2024-10-10_13h38.35.725,cpt_test,2024.2.2,59.977496446537565,2024-10-10 13h40.16.268130 -0600,
160,X,1,x,159,159,0,x,1,0.5632175999926403,0.24631240000599064,0,159,159,159,468.122008300008,,,,,,,,,,,468.1075858999975,468.122008300008,468.122008300008,468.3050753000134,468.32128100001137,470.1066728000005,x,1,0.5632175999926403,0.24631240000599064,,000018,001,2024-10-10_13h38.35.725,cpt_test,2024.2.2,59.977496446537565,2024-10-10 13h40.16.268130 -0600,
161,A,0,None,160,160,0,None,1,,,0,160,160,160,470.1202891000139,,,,,,,,,,,470.10687450002297,470.1202891000139,470.1202891000139,470.3034034000011,470.31958850001683,472.1043185000017,None,1,,,,000018,001,2024-10-10_13h38.35.725,cpt_test,2024.2.2,59.977496446537565,2024-10-10 13h40.16.268130 -0600,
162,M,0,None,161,161,0,None,1,,,0,161,161,161,472.1188009000034,,,,,,,,,,,472.1044682000065,472.1188009000034,472.1188009000034,472.3019111000176,472.3178908000118,474.1027117000194,None,1,,,,000018,001,2024-10-10_13h38.35.725,cpt_test,2024.2.2,59.977496446537565,2024-10-10 13h40.16.268130 -0600,
163,X,1,x,162,162,0,x,1,0.46685129997786134,0.2563408999994863,0,162,162,162,474.11706680001225,,,,,,,,,,,474.10286199999973,474.11706680001225,474.11706680001225,474.3000470000261,474.31637270000647,476.1010525000165,x,1,0.46685129997786134,0.2563408999994863,,000018,001,2024-10-10_13h38.35.725,cpt_test,2024.2.2,59.977496446537565,2024-10-10 13h40.16.268130 -0600,
164,X,1,x,163,163,0,x,1,0.4418325000151526,0.23637779999990016,0,163,163,163,476.11513540000306,,,,,,,,,,,476.1012347000069,476.11513540000306,476.11513540000306,476.3149582000042,476.3149582000042,478.11628440002096,x,1,0.4418325000151526,0.23637779999990016,,000018,001,2024-10-10_13h38.35.725,cpt_test,2024.2.2,59.977496446537565,2024-10-10 13h40.16.268130 -0600,
165,K,0,None,164,164,0,None,1,,,0,164,164,164,478.13015090001863,,,,,,,,,,,478.11645410000347,478.13015090001863,478.13015090001863,478.31318290001946,478.329575700016,480.1142085000174,None,1,,,,000018,001,2024-10-10_13h38.35.725,cpt_test,2024.2.2,59.977496446537565,2024-10-10 13h40.16.268130 -0600,
166,X,1,x,165,165,0,x,1,0.5583442999923136,0.23775699999532662,0,165,165,165,480.1284548000258,,,,,,,,,,,480.11435220000567,480.1284548000258,480.1284548000258,480.311863800016,480.32825190000585,482.1124124000198,x,1,0.5583442999923136,0.23775699999532662,,000018,001,2024-10-10_13h38.35.725,cpt_test,2024.2.2,59.977496446537565,2024-10-10 13h40.16.268130 -0600,
167,M,0,None,166,166,0,None,1,,,0,166,166,166,482.12702030001674,,,,,,,,,,,482.11256880001747,482.12702030001674,482.12702030001674,482.3102400000207,482.3264893000014,484.11109540000325,None,1,,,,000018,001,2024-10-10_13h38.35.725,cpt_test,2024.2.2,59.977496446537565,2024-10-10 13h40.16.268130 -0600,
168,X,1,x,167,167,0,x,1,0.40760239999508485,0.25312390000908636,0,167,167,167,484.1254186000151,,,,,,,,,,,484.11126669999794,484.1254186000151,484.1254186000151,484.3085601000057,484.32489360001637,486.1093812000181,x,1,0.40760239999508485,0.25312390000908636,,000018,001,2024-10-10_13h38.35.725,cpt_test,2024.2.2,59.977496446537565,2024-10-10 13h40.16.268130 -0600,
169,A,0,None,168,168,0,None,1,,,0,168,168,168,486.1234306000115,,,,,,,,,,,486.1095378000173,486.1234306000115,486.1234306000115,486.30669220001437,486.3230007000093,488.1082260000112,None,1,,,,000018,001,2024-10-10_13h38.35.725,cpt_test,2024.2.2,59.977496446537565,2024-10-10 13h40.16.268130 -0600,
170,X,1,x,169,169,0,x,1,0.46441020001657307,0.25049869998474605,0,169,169,169,488.1222056999977,,,,,,,,,,,488.1083999000257,488.1222056999977,488.1222056999977,488.3053516000218,488.32162699999753,490.106494800013,x,1,0.46441020001657307,0.25049869998474605,,000018,001,2024-10-10_13h38.35.725,cpt_test,2024.2.2,59.977496446537565,2024-10-10 13h40.16.268130 -0600,
171,L,0,None,170,170,0,None,1,,,0,170,170,170,490.1204684000113,,,,,,,,,,,490.10666420002235,490.1204684000113,490.1204684000113,490.3036410000059,490.3198620000039,492.10461999999825,None,1,,,,000018,001,2024-10-10_13h38.35.725,cpt_test,2024.2.2,59.977496446537565,2024-10-10 13h40.16.268130 -0600,
172,E,0,None,171,171,0,None,1,,,0,171,171,171,492.11888069999986,,,,,,,,,,,492.10476360001485,492.11888069999986,492.11888069999986,492.30188900002395,492.3185356000031,494.10271970002213,None,1,,,,000018,001,2024-10-10_13h38.35.725,cpt_test,2024.2.2,59.977496446537565,2024-10-10 13h40.16.268130 -0600,
173,T,0,None,172,172,0,None,1,,,0,172,172,172,494.11693750001723,,,,,,,,,,,494.10286870002165,494.11693750001723,494.11693750001723,494.3000478000031,494.31649409999955,496.10128709999844,None,1,,,,000018,001,2024-10-10_13h38.35.725,cpt_test,2024.2.2,59.977496446537565,2024-10-10 13h40.16.268130 -0600,
174,F,0,None,173,173,0,None,1,,,0,173,173,173,496.1155195000174,,,,,,,,,,,496.1014404000016,496.1155195000174,496.1155195000174,496.3149664000084,496.3149664000084,498.1163759000192,None,1,,,,000018,001,2024-10-10_13h38.35.725,cpt_test,2024.2.2,59.977496446537565,2024-10-10 13h40.16.268130 -0600,
175,M,0,None,174,174,0,None,1,,,0,174,174,174,498.1305742000113,,,,,,,,,,,498.1165304000024,498.1305742000113,498.1305742000113,498.3137898000132,498.3299972000241,500.11478150001494,None,1,,,,000018,001,2024-10-10_13h38.35.725,cpt_test,2024.2.2,59.977496446537565,2024-10-10 13h40.16.268130 -0600,
176,Q,0,None,175,175,0,None,1,,,0,175,175,175,500.1290519000031,,,,,,,,,,,500.1149275000207,500.1290519000031,500.1290519000031,500.3120977000217,500.3283408000134,502.1127661000064,None,1,,,,000018,001,2024-10-10_13h38.35.725,cpt_test,2024.2.2,59.977496446537565,2024-10-10 13h40.16.268130 -0600,
177,M,0,None,176,176,0,None,1,,,0,176,176,176,502.1273702000035,,,,,,,,,,,502.11291809999966,502.1273702000035,502.1273702000035,502.3101128000126,502.32649649999803,504.11112050001975,None,1,,,,000018,001,2024-10-10_13h38.35.725,cpt_test,2024.2.2,59.977496446537565,2024-10-10 13h40.16.268130 -0600,
178,X,1,x,177,177,0,x,1,0.4698560999822803,0.26116640001419,0,177,177,177,504.1257014000148,,,,,,,,,,,504.11126720000175,504.1257014000148,504.1257014000148,504.3088121000037,504.32499690001714,506.1094551999995,x,1,0.4698560999822803,0.26116640001419,,000018,001,2024-10-10_13h38.35.725,cpt_test,2024.2.2,59.977496446537565,2024-10-10 13h40.16.268130 -0600,
179,V,0,None,178,178,0,None,1,,,0,178,178,178,506.12403840001207,,,,,,,,,,,506.10961990000214,506.12403840001207,506.12403840001207,506.3071418000036,506.323538000026,508.10754779999843,None,1,,,,000018,001,2024-10-10_13h38.35.725,cpt_test,2024.2.2,59.977496446537565,2024-10-10 13h40.16.268130 -0600,
180,M,0,None,179,179,0,None,1,,,0,179,179,179,508.1224192000227,,,,,,,,,,,508.1076909000112,508.1224192000227,508.1224192000227,508.30542350001633,508.3217097000161,510.10651979999966,None,1,,,,000018,001,2024-10-10_13h38.35.725,cpt_test,2024.2.2,59.977496446537565,2024-10-10 13h40.16.268130 -0600,
181,P,0,None,180,180,0,None,1,,,0,180,180,180,510.12063050002325,,,,,,,,,,,510.1066985000216,510.12063050002325,510.12063050002325,510.3035582000157,510.3202212000033,512.1045238000224,None,1,,,,000018,001,2024-10-10_13h38.35.725,cpt_test,2024.2.2,59.977496446537565,2024-10-10 13h40.16.268130 -0600,
182,K,0,None,181,181,0,None,1,,,0,181,181,181,512.118919200002,,,,,,,,,,,512.1046768000233,512.118919200002,512.118919200002,512.3019926999987,512.31868940001,514.1027527000115,None,1,,,,000018,001,2024-10-10_13h38.35.725,cpt_test,2024.2.2,59.977496446537565,2024-10-10 13h40.16.268130 -0600,
183,V,0,None,182,182,0,None,1,,,0,182,182,182,514.1173039000132,,,,,,,,,,,514.102899200021,514.1173039000132,514.1173039000132,514.3006067000097,514.316651000001,516.1019251000253,None,1,,,,000018,001,2024-10-10_13h38.35.725,cpt_test,2024.2.2,59.977496446537565,2024-10-10 13h40.16.268130 -0600,
184,G,0,None,183,183,0,None,1,,,0,183,183,183,516.1156973000034,,,,,,,,,,,516.1020876000111,516.1156973000034,516.1156973000034,516.3152394000208,516.3152394000208,518.1168689000187,None,1,,,,000018,001,2024-10-10_13h38.35.725,cpt_test,2024.2.2,59.977496446537565,2024-10-10 13h40.16.268130 -0600,
185,L,0,None,184,184,0,None,1,,,0,184,184,184,518.1307924000139,,,,,,,,,,,518.1170433000079,518.1307924000139,518.1307924000139,518.3137321000104,518.3297791000223,520.1157552000077,None,1,,,,000018,001,2024-10-10_13h38.35.725,cpt_test,2024.2.2,59.977496446537565,2024-10-10 13h40.16.268130 -0600,
186,Q,0,None,185,185,0,None,1,,,0,185,185,185,520.1288242000155,,,,,,,,,,,520.1159552000172,520.1288242000155,520.1288242000155,520.312122400006,520.3286348000111,522.1144103000115,None,1,,,,000018,001,2024-10-10_13h38.35.725,cpt_test,2024.2.2,59.977496446537565,2024-10-10 13h40.16.268130 -0600,
187,N,0,None,186,186,0,None,1,,,0,186,186,186,522.1273941000109,,,,,,,,,,,522.1146587000112,522.1273941000109,522.1273941000109,522.3107674000203,522.3267033000011,524.1112709000008,None,1,,,,000018,001,2024-10-10_13h38.35.725,cpt_test,2024.2.2,59.977496446537565,2024-10-10 13h40.16.268130 -0600,
188,K,0,None,187,187,0,None,1,,,0,187,187,187,524.1254590000026,,,,,,,,,,,524.1114301000198,524.1254590000026,524.1254590000026,524.3089365000196,524.3249243000173,526.1096303000231,None,1,,,,000018,001,2024-10-10_13h38.35.725,cpt_test,2024.2.2,59.977496446537565,2024-10-10 13h40.16.268130 -0600,
189,C,0,None,188,188,0,None,1,,,0,188,188,188,526.123670800007,,,,,,,,,,,526.1097790000204,526.123670800007,526.123670800007,526.3067740999977,526.3231236000138,528.1081784999988,None,1,,,,000018,001,2024-10-10_13h38.35.725,cpt_test,2024.2.2,59.977496446537565,2024-10-10 13h40.16.268130 -0600,
190,Z,0,None,189,189,0,None,1,,,0,189,189,189,528.1226222999976,,,,,,,,,,,528.1083235999977,528.1226222999976,528.1226222999976,528.3056554000068,528.3221933000023,530.1065884999989,None,1,,,,000018,001,2024-10-10_13h38.35.725,cpt_test,2024.2.2,59.977496446537565,2024-10-10 13h40.16.268130 -0600,
191,I,0,None,190,190,0,None,1,,,0,190,190,190,530.1205537000205,,,,,,,,,,,530.1067401000182,530.1205537000205,530.1205537000205,530.3036142000055,530.3201141000027,532.1049230000062,None,1,,,,000018,001,2024-10-10_13h38.35.725,cpt_test,2024.2.2,59.977496446537565,2024-10-10 13h40.16.268130 -0600,
192,J,0,None,191,191,0,None,1,,,0,191,191,191,532.1191395000205,,,,,,,,,,,532.1050810000161,532.1191395000205,532.1191395000205,532.302337400004,532.3185217000137,534.1033462000196,None,1,,,,000018,001,2024-10-10_13h38.35.725,cpt_test,2024.2.2,59.977496446537565,2024-10-10 13h40.16.268130 -0600,
193,X,1,x,192,192,0,x,1,0.5049036999989767,0.2740157999796793,0,192,192,192,534.1175974000071,,,,,,,,,,,534.1035037999973,534.1175974000071,534.1175974000071,534.3005210999982,534.3169972000178,536.1015552000026,x,1,0.5049036999989767,0.2740157999796793,,000018,001,2024-10-10_13h38.35.725,cpt_test,2024.2.2,59.977496446537565,2024-10-10 13h40.16.268130 -0600,
194,E,0,None,193,193,0,None,1,,,0,193,193,193,536.1159794999985,,,,,,,,,,,536.1017296000209,536.1159794999985,536.1159794999985,536.3155468000041,536.3155468000041,538.1164418999979,None,1,,,,000018,001,2024-10-10_13h38.35.725,cpt_test,2024.2.2,59.977496446537565,2024-10-10 13h40.16.268130 -0600,
195,X,1,x,194,194,0,x,1,0.46520539998891763,0.24766290001571178,0,194,194,194,538.1309916000173,,,,,,,,,,,538.1165870999976,538.1309916000173,538.1309916000173,538.3137431000068,538.3302072000224,540.1157446000143,x,1,0.46520539998891763,0.24766290001571178,,000018,001,2024-10-10_13h38.35.725,cpt_test,2024.2.2,59.977496446537565,2024-10-10 13h40.16.268130 -0600,
196,X,1,x,195,195,0,x,1,0.7581081000098493,0.2571530999848619,0,195,195,195,540.1292506000027,,,,,,,,,,,540.1159363000188,540.1292506000027,540.1292506000027,540.3124114000238,540.3286164000165,542.1131034000136,x,1,0.7581081000098493,0.2571530999848619,,000018,001,2024-10-10_13h38.35.725,cpt_test,2024.2.2,59.977496446537565,2024-10-10 13h40.16.268130 -0600,
197,O,0,None,196,196,0,None,1,,,0,196,196,196,542.1274365000136,,,,,,,,,,,542.1132540000253,542.1274365000136,542.1274365000136,542.310899300006,542.3271332000149,544.1130475000245,None,1,,,,000018,001,2024-10-10_13h38.35.725,cpt_test,2024.2.2,59.977496446537565,2024-10-10 13h40.16.268130 -0600,
198,X,1,x,197,197,0,x,1,0.6266219999815803,0.2371500000008382,0,197,197,197,544.1259250000003,,,,,,,,,,,544.1132651000225,544.1259250000003,544.1259250000003,544.308838500001,544.3252745000063,546.1097859000147,x,1,0.6266219999815803,0.2371500000008382,,000018,001,2024-10-10_13h38.35.725,cpt_test,2024.2.2,59.977496446537565,2024-10-10 13h40.16.268130 -0600,
199,T,0,None,198,198,0,None,1,,,0,198,198,198,546.1244434000109,,,,,,,,,,,546.1099363000249,546.1244434000109,546.1244434000109,546.3074171000044,546.3238685000106,548.1083780000044,None,1,,,,000018,001,2024-10-10_13h38.35.725,cpt_test,2024.2.2,59.977496446537565,2024-10-10 13h40.16.268130 -0600,
200,X,1,x,199,199,0,x,1,0.4835663999838289,0.25612920001731254,0,199,199,199,548.122517700016,,,,,,,,,,,548.1085271000047,548.122517700016,548.122517700016,548.3059221000003,548.3219824000262,550.1067216000229,x,1,0.4835663999838289,0.25612920001731254,,000018,001,2024-10-10_13h38.35.725,cpt_test,2024.2.2,59.977496446537565,2024-10-10 13h40.16.268130 -0600,
201,L,0,None,200,200,0,None,1,,,0,200,200,200,550.1211109000142,,,,,,,,,,,550.1068892000185,550.1211109000142,550.1211109000142,550.3042512000247,550.3205912999983,552.1051357000251,None,1,,,,000018,001,2024-10-10_13h38.35.725,cpt_test,2024.2.2,59.977496446537565,2024-10-10 13h40.16.268130 -0600,
