Number,letra,target,correctas,thisN,thisTrialN,thisRepN,respuesta.keys,respuesta.corr,respuesta.rt,respuesta.duration,trials.thisRepN,trials.thisTrialN,trials.thisN,trials.thisIndex,thisRow.t,notes,Ojos_abiertos.started,Abiertos.started,Ojos_abiertos.stopped,Ojos_cerrados.started,Cerrados.started,alert.started,Cerrados.stopped,alert.stopped,Ojos_cerrados.stopped,Test.started,prueba.started,respuesta.started,text.started,prueba.stopped,Test.stopped,trials.respuesta.keys,trials.respuesta.corr,trials.respuesta.rt,trials.respuesta.duration,text.stopped,participant,session,date,expName,psychopyVersion,frameRate,expStart,
,,,,,,,,,,,,,,,,,0.00738580001052469,0.015135800000280142,90.00736390001839,,,,,,,,,,,,,,,,,,000011,001,2024-10-09_13h02.57.397,cpt_test,2024.2.2,59.963434298561936,2024-10-09 13h06.48.963793 -0600,
,,,,,,,,,,,,,,,,,,,,90.00887260001036,90.0192852000182,150.00333906666881,150.01991299999645,150.29926210001577,150.10733870000695,,,,,,,,,,,,000011,001,2024-10-09_13h02.57.397,cpt_test,2024.2.2,59.963434298561936,2024-10-09 13h06.48.963793 -0600,
1,A,0,None,0,0,0,None,1,,,0,0,0,0,150.29926210001577,,,,,,,,,,,150.12782290001633,150.29926210001577,150.29926210001577,150.31095159999677,150.5027179000026,152.1049406999955,None,1,,,,000011,001,2024-10-09_13h02.57.397,cpt_test,2024.2.2,59.963434298561936,2024-10-09 13h06.48.963793 -0600,
2,R,0,None,1,1,0,None,1,,,0,1,1,1,152.12542359999497,,,,,,,,,,,152.10513410001295,152.12542359999497,152.12542359999497,152.3017361999955,152.33467330000713,154.1034605000168,None,1,,,,000011,001,2024-10-09_13h02.57.397,cpt_test,2024.2.2,59.963434298561936,2024-10-09 13h06.48.963793 -0600,
3,L,0,None,2,2,0,None,1,,,0,2,2,2,154.12363380001625,,,,,,,,,,,154.10366920000524,154.12363380001625,154.12363380001625,154.29976799999713,154.3329822999949,156.1017219000205,None,1,,,,000011,001,2024-10-09_13h02.57.397,cpt_test,2024.2.2,59.963434298561936,2024-10-09 13h06.48.963793 -0600,
4,X,1,x,3,3,0,x,1,0.430844899994554,0.192223499994725,0,3,3,3,156.11743400001433,,,,,,,,,,,156.10186970001087,156.11743400001433,156.11743400001433,156.31487500001094,156.33141490002163,158.11598580001737,x,1,0.430844899994554,0.192223499994725,,000011,001,2024-10-09_13h02.57.397,cpt_test,2024.2.2,59.963434298561936,2024-10-09 13h06.48.963793 -0600,
5,O,0,None,4,4,0,None,1,,,0,4,4,4,158.13198370000464,,,,,,,,,,,158.11615970000275,158.13198370000464,158.13198370000464,158.31347860000096,158.34639099999913,160.1150370000105,None,1,,,,000011,001,2024-10-09_13h02.57.397,cpt_test,2024.2.2,59.963434298561936,2024-10-09 13h06.48.963793 -0600,
6,G,0,None,5,5,0,None,1,,,0,5,5,5,160.13279160001548,,,,,,,,,,,160.115234900004,160.13279160001548,160.13279160001548,160.31157290001283,160.34481150002102,162.1135290999955,None,1,,,,000011,001,2024-10-09_13h02.57.397,cpt_test,2024.2.2,59.963434298561936,2024-10-09 13h06.48.963793 -0600,
7,P,0,None,6,6,0,None,1,,,0,6,6,6,162.1326482000004,,,,,,,,,,,162.113743599999,162.1326482000004,162.1326482000004,162.31017290000455,162.34292070000083,164.11220719999983,None,1,,,,000011,001,2024-10-09_13h02.57.397,cpt_test,2024.2.2,59.963434298561936,2024-10-09 13h06.48.963793 -0600,
8,X,1,x,7,7,0,x,1,0.4215606000216212,0.16800249999505468,0,7,7,7,164.12518709999858,,,,,,,,,,,164.1124342000112,164.12518709999858,164.12518709999858,164.30844210000942,164.32470860000467,166.11007140000584,x,1,0.4215606000216212,0.16800249999505468,,000011,001,2024-10-09_13h02.57.397,cpt_test,2024.2.2,59.963434298561936,2024-10-09 13h06.48.963793 -0600,
9,X,1,x,8,8,0,x,1,0.5007435000152327,0.1865160999877844,0,8,8,8,166.1237156999996,,,,,,,,,,,166.11027000000468,166.1237156999996,166.1237156999996,166.30660320000607,166.32319759999518,168.10765310001443,x,1,0.5007435000152327,0.1865160999877844,,000011,001,2024-10-09_13h02.57.397,cpt_test,2024.2.2,59.963434298561936,2024-10-09 13h06.48.963793 -0600,
10,Z,0,None,9,9,0,None,1,,,0,9,9,9,168.1255304000224,,,,,,,,,,,168.10780729999533,168.1255304000224,168.1255304000224,168.3051034999953,168.33798569999635,170.107324600016,None,1,,,,000011,001,2024-10-09_13h02.57.397,cpt_test,2024.2.2,59.963434298561936,2024-10-09 13h06.48.963793 -0600,
11,I,0,None,10,10,0,None,1,,,0,10,10,10,170.12448560001212,,,,,,,,,,,170.1075511999952,170.12448560001212,170.12448560001212,170.30337330000475,170.3365371999971,172.10602510001627,None,1,,,,000011,001,2024-10-09_13h02.57.397,cpt_test,2024.2.2,59.963434298561936,2024-10-09 13h06.48.963793 -0600,
12,D,0,None,11,11,0,None,1,,,0,11,11,11,172.12759290001122,,,,,,,,,,,172.1062695000146,172.12759290001122,172.12759290001122,172.30200640001567,172.3348309000139,174.1036957000033,None,1,,,,000011,001,2024-10-09_13h02.57.397,cpt_test,2024.2.2,59.963434298561936,2024-10-09 13h06.48.963793 -0600,
13,X,1,x,12,12,0,x,1,0.34020540001802146,0.16638660000171512,0,12,12,12,174.11680859999615,,,,,,,,,,,174.10390330001246,174.11680859999615,174.11680859999615,174.29965830000583,174.31610759999603,176.1020088000223,x,1,0.34020540001802146,0.16638660000171512,,000011,001,2024-10-09_13h02.57.397,cpt_test,2024.2.2,59.963434298561936,2024-10-09 13h06.48.963793 -0600,
14,Y,0,None,13,13,0,None,1,,,0,13,13,13,176.12204889999703,,,,,,,,,,,176.10222580001573,176.12204889999703,176.12204889999703,176.31541100001778,176.33141440001782,178.11621770000784,None,1,,,,000011,001,2024-10-09_13h02.57.397,cpt_test,2024.2.2,59.963434298561936,2024-10-09 13h06.48.963793 -0600,
15,X,1,x,14,14,0,x,1,0.31771760000265203,0.15933470000163652,0,14,14,14,178.1306598999945,,,,,,,,,,,178.11636870002258,178.1306598999945,178.1306598999945,178.3137204000086,178.32987950000097,180.11614580001333,x,1,0.31771760000265203,0.15933470000163652,,000011,001,2024-10-09_13h02.57.397,cpt_test,2024.2.2,59.963434298561936,2024-10-09 13h06.48.963793 -0600,
16,X,1,x,15,15,0,x,1,0.3294648999872152,0.1469099000096321,0,15,15,15,180.12855510000372,,,,,,,,,,,180.11641360001522,180.12855510000372,180.12855510000372,180.31187060000957,180.3281276000198,182.11378610000247,x,1,0.3294648999872152,0.1469099000096321,,000011,001,2024-10-09_13h02.57.397,cpt_test,2024.2.2,59.963434298561936,2024-10-09 13h06.48.963793 -0600,
17,A,0,None,16,16,0,None,1,,,0,16,16,16,182.12716240002192,,,,,,,,,,,182.11399899999378,182.12716240002192,182.12716240002192,182.31031749999966,182.3266094000137,184.11227569999755,None,1,,,,000011,001,2024-10-09_13h02.57.397,cpt_test,2024.2.2,59.963434298561936,2024-10-09 13h06.48.963793 -0600,
18,J,0,None,17,17,0,None,1,,,0,17,17,17,184.13252990000183,,,,,,,,,,,184.1124924000178,184.13252990000183,184.13252990000183,184.3086431999982,184.34174970001914,186.1099830000021,None,1,,,,000011,001,2024-10-09_13h02.57.397,cpt_test,2024.2.2,59.963434298561936,2024-10-09 13h06.48.963793 -0600,
19,G,0,None,18,18,0,None,1,,,0,18,18,18,186.12393669999437,,,,,,,,,,,186.1101733999967,186.12393669999437,186.12393669999437,186.30687980001676,186.32344209999428,188.10899280000012,None,1,,,,000011,001,2024-10-09_13h02.57.397,cpt_test,2024.2.2,59.963434298561936,2024-10-09 13h06.48.963793 -0600,
20,X,1,x,19,19,0,x,1,0.2944955000129994,0.1574726999970153,0,19,19,19,188.12190910000936,,,,,,,,,,,188.109206299996,188.12190910000936,188.12190910000936,188.30541110000922,188.32157780000125,190.10605960001703,x,1,0.2944955000129994,0.1574726999970153,,000011,001,2024-10-09_13h02.57.397,cpt_test,2024.2.2,59.963434298561936,2024-10-09 13h06.48.963793 -0600,
21,T,0,None,20,20,0,None,1,,,0,20,20,20,190.12368690001313,,,,,,,,,,,190.10621990001528,190.12368690001313,190.12368690001313,190.30373519999557,190.33651880000252,192.10495720000472,None,1,,,,000011,001,2024-10-09_13h02.57.397,cpt_test,2024.2.2,59.963434298561936,2024-10-09 13h06.48.963793 -0600,
22,S,0,None,21,21,0,None,1,,,0,21,21,21,192.12522139999783,,,,,,,,,,,192.10514570001396,192.12522139999783,192.12522139999783,192.3022215999954,192.33514589999686,194.10446140001295,None,1,,,,000011,001,2024-10-09_13h02.57.397,cpt_test,2024.2.2,59.963434298561936,2024-10-09 13h06.48.963793 -0600,
23,X,1,x,22,22,0,x,1,0.3889064000104554,0.18833319999976084,0,22,22,22,194.11725910002133,,,,,,,,,,,194.10470560000977,194.11725910002133,194.11725910002133,194.30045820001396,194.31661900001927,196.10196630001883,x,1,0.3889064000104554,0.18833319999976084,,000011,001,2024-10-09_13h02.57.397,cpt_test,2024.2.2,59.963434298561936,2024-10-09 13h06.48.963793 -0600,
24,S,0,None,23,23,0,None,1,,,0,23,23,23,196.11535090001416,,,,,,,,,,,196.10216700000456,196.11535090001416,196.11535090001416,196.31506789999548,196.31506789999548,198.11669170000823,None,1,,,,000011,001,2024-10-09_13h02.57.397,cpt_test,2024.2.2,59.963434298561936,2024-10-09 13h06.48.963793 -0600,
25,G,0,None,24,24,0,None,1,,,0,24,24,24,198.13038700001198,,,,,,,,,,,198.11687850000453,198.13038700001198,198.13038700001198,198.31397950000246,198.33014649999677,200.11516720001237,None,1,,,,000011,001,2024-10-09_13h02.57.397,cpt_test,2024.2.2,59.963434298561936,2024-10-09 13h06.48.963793 -0600,
26,O,0,None,25,25,0,None,1,,,0,25,25,25,200.12887630000478,,,,,,,,,,,200.11537420001696,200.12887630000478,200.12887630000478,200.3122154000157,200.32858410000335,202.11457810000866,None,1,,,,000011,001,2024-10-09_13h02.57.397,cpt_test,2024.2.2,59.963434298561936,2024-10-09 13h06.48.963793 -0600,
27,P,0,None,26,26,0,None,1,,,0,26,26,26,202.12718929999392,,,,,,,,,,,202.11481850000564,202.12718929999392,202.12718929999392,202.31046700000297,202.3270218000107,204.1125480000046,None,1,,,,000011,001,2024-10-09_13h02.57.397,cpt_test,2024.2.2,59.963434298561936,2024-10-09 13h06.48.963793 -0600,
28,Z,0,None,27,27,0,None,1,,,0,27,27,27,204.12554209999507,,,,,,,,,,,204.11277100001462,204.12554209999507,204.12554209999507,204.30860129999928,204.3251261000114,206.10927159999846,None,1,,,206.10683890001383,000011,001,2024-10-09_13h02.57.397,cpt_test,2024.2.2,59.963434298561936,2024-10-09 13h06.48.963793 -0600,
29,X,1,x,28,28,0,x,1,0.345651599986013,0.1546258000016678,0,28,28,28,206.12464640001417,,,,,,,,,,,206.10941570001887,206.12464640001417,206.12464640001417,206.30724540000665,206.3234994999948,208.10785510001006,x,1,0.345651599986013,0.1546258000016678,,000011,001,2024-10-09_13h02.57.397,cpt_test,2024.2.2,59.963434298561936,2024-10-09 13h06.48.963793 -0600,
30,I,0,None,29,29,0,None,1,,,0,29,29,29,208.12204580000252,,,,,,,,,,,208.108003500005,208.12204580000252,208.12204580000252,208.30575349999708,208.3218537000066,210.1072767000005,None,1,,,,000011,001,2024-10-09_13h02.57.397,cpt_test,2024.2.2,59.963434298561936,2024-10-09 13h06.48.963793 -0600,
31,F,0,None,30,30,0,None,1,,,0,30,30,30,210.1277847000165,,,,,,,,,,,210.10748330000206,210.1277847000165,210.1277847000165,210.30409030002193,210.33695019999868,212.10450250000576,None,1,,,,000011,001,2024-10-09_13h02.57.397,cpt_test,2024.2.2,59.963434298561936,2024-10-09 13h06.48.963793 -0600,
32,M,0,None,31,31,0,None,1,,,0,31,31,31,212.12416239999584,,,,,,,,,,,212.1046542999975,212.12416239999584,212.12416239999584,212.30214569999953,212.33525610002107,214.10461880001822,None,1,,,,000011,001,2024-10-09_13h02.57.397,cpt_test,2024.2.2,59.963434298561936,2024-10-09 13h06.48.963793 -0600,
33,T,0,None,32,32,0,None,1,,,0,32,32,32,214.11727330001304,,,,,,,,,,,214.10489650000818,214.11727330001304,214.11727330001304,214.30066060001263,214.31685060000746,216.10149319999618,None,1,,,,000011,001,2024-10-09_13h02.57.397,cpt_test,2024.2.2,59.963434298561936,2024-10-09 13h06.48.963793 -0600,
34,A,0,None,33,33,0,None,1,,,0,33,33,33,216.11602230000426,,,,,,,,,,,216.1016549000051,216.11602230000426,216.11602230000426,216.3153095000016,216.3153095000016,218.1164226999972,None,1,,,,000011,001,2024-10-09_13h02.57.397,cpt_test,2024.2.2,59.963434298561936,2024-10-09 13h06.48.963793 -0600,
35,E,0,None,34,34,0,None,1,,,0,34,34,34,218.13246019999497,,,,,,,,,,,218.1165836,218.13246019999497,218.13246019999497,218.31395270000212,218.34701610001503,220.1153050000139,None,1,,,,000011,001,2024-10-09_13h02.57.397,cpt_test,2024.2.2,59.963434298561936,2024-10-09 13h06.48.963793 -0600,
36,X,1,x,35,35,0,x,1,0.30160229999455623,0.17316820000996813,0,35,35,35,220.12906140001724,,,,,,,,,,,220.11549070000183,220.12906140001724,220.12906140001724,220.3125383000006,220.32852490001824,222.11350979999406,x,1,0.30160229999455623,0.17316820000996813,,000011,001,2024-10-09_13h02.57.397,cpt_test,2024.2.2,59.963434298561936,2024-10-09 13h06.48.963793 -0600,
37,A,0,None,36,36,0,None,1,,,0,36,36,36,222.12722640001448,,,,,,,,,,,222.11368790001143,222.12722640001448,222.12722640001448,222.3106224000221,222.32713039999362,224.1115783000132,None,1,,,,000011,001,2024-10-09_13h02.57.397,cpt_test,2024.2.2,59.963434298561936,2024-10-09 13h06.48.963793 -0600,
38,S,0,None,37,37,0,None,1,,,0,37,37,37,224.1257700000133,,,,,,,,,,,224.1117387000122,224.1257700000133,224.1257700000133,224.30911729999934,224.3254500000039,226.11003410001285,None,1,,,,000011,001,2024-10-09_13h02.57.397,cpt_test,2024.2.2,59.963434298561936,2024-10-09 13h06.48.963793 -0600,
39,U,0,None,38,38,0,None,1,,,0,38,38,38,226.1292297000182,,,,,,,,,,,226.1101913000166,226.1292297000182,226.1292297000182,226.307108900015,226.3402567000012,228.10822480000206,None,1,,,,000011,001,2024-10-09_13h02.57.397,cpt_test,2024.2.2,59.963434298561936,2024-10-09 13h06.48.963793 -0600,
40,U,0,None,39,39,0,None,1,,,0,39,39,39,228.1227058999939,,,,,,,,,,,228.10837650002213,228.1227058999939,228.1227058999939,228.30578330002027,228.32213350001257,230.10624320001807,None,1,,,,000011,001,2024-10-09_13h02.57.397,cpt_test,2024.2.2,59.963434298561936,2024-10-09 13h06.48.963793 -0600,
41,Q,0,None,40,40,0,None,1,,,0,40,40,40,230.1257777000137,,,,,,,,,,,230.10638460001792,230.1257777000137,230.1257777000137,230.30390270001953,230.33700910001062,232.10469550002017,None,1,,,,000011,001,2024-10-09_13h02.57.397,cpt_test,2024.2.2,59.963434298561936,2024-10-09 13h06.48.963793 -0600,
42,E,0,None,41,41,0,None,1,,,0,41,41,41,232.1188958999992,,,,,,,,,,,232.10484310000902,232.1188958999992,232.1188958999992,232.30242690001614,232.31866170000285,234.10363759999746,None,1,,,,000011,001,2024-10-09_13h02.57.397,cpt_test,2024.2.2,59.963434298561936,2024-10-09 13h06.48.963793 -0600,
43,B,0,None,42,42,0,None,1,,,0,42,42,42,234.11981080000987,,,,,,,,,,,234.10378770000534,234.11981080000987,234.11981080000987,234.30087330000242,234.33368120001978,236.10159580002073,None,1,,,,000011,001,2024-10-09_13h02.57.397,cpt_test,2024.2.2,59.963434298561936,2024-10-09 13h06.48.963793 -0600,
44,O,0,None,43,43,0,None,1,,,0,43,43,43,236.11616790000699,,,,,,,,,,,236.10174020001432,236.11616790000699,236.11616790000699,236.31545610001194,236.31545610001194,238.11662800001795,None,1,,,,000011,001,2024-10-09_13h02.57.397,cpt_test,2024.2.2,59.963434298561936,2024-10-09 13h06.48.963793 -0600,
45,E,0,None,44,44,0,None,1,,,0,44,44,44,238.13096790001146,,,,,,,,,,,238.1167813000211,238.13096790001146,238.13096790001146,238.3143687999982,238.33047909999732,240.11522229999537,None,1,,,,000011,001,2024-10-09_13h02.57.397,cpt_test,2024.2.2,59.963434298561936,2024-10-09 13h06.48.963793 -0600,
46,F,0,None,45,45,0,None,1,,,0,45,45,45,240.12912600001437,,,,,,,,,,,240.1153864999942,240.12912600001437,240.12912600001437,240.31248839999898,240.32892280002125,242.11335200001486,None,1,,,,000011,001,2024-10-09_13h02.57.397,cpt_test,2024.2.2,59.963434298561936,2024-10-09 13h06.48.963793 -0600,
47,V,0,None,46,46,0,None,1,,,0,46,46,46,242.13152840000112,,,,,,,,,,,242.11350320000201,242.13152840000112,242.13152840000112,242.31065270002,242.34370580001269,244.1122963000089,None,1,,,,000011,001,2024-10-09_13h02.57.397,cpt_test,2024.2.2,59.963434298561936,2024-10-09 13h06.48.963793 -0600,
48,X,1,x,47,47,0,x,1,0.42128010001033545,0.1992921000055503,0,47,47,47,244.12720420002006,,,,,,,,,,,244.11244080000324,244.12720420002006,244.12720420002006,244.30940680002095,244.34192180001992,246.11010910000186,x,1,0.42128010001033545,0.1992921000055503,,000011,001,2024-10-09_13h02.57.397,cpt_test,2024.2.2,59.963434298561936,2024-10-09 13h06.48.963793 -0600,
49,X,1,x,48,48,0,x,1,0.5359158999926876,0.2067475000221748,0,48,48,48,246.1245176999946,,,,,,,,,,,246.11026650000713,246.1245176999946,246.1245176999946,246.30760349999764,246.32390069999383,248.10831830001553,x,1,0.5359158999926876,0.2067475000221748,,000011,001,2024-10-09_13h02.57.397,cpt_test,2024.2.2,59.963434298561936,2024-10-09 13h06.48.963793 -0600,
50,C,0,None,49,49,0,None,1,,,0,49,49,49,248.12597029999597,,,,,,,,,,,248.10847710000235,248.12597029999597,248.12597029999597,248.3061837000132,248.33909789999598,250.1069060000009,None,1,,,,000011,001,2024-10-09_13h02.57.397,cpt_test,2024.2.2,59.963434298561936,2024-10-09 13h06.48.963793 -0600,
51,M,0,None,50,50,0,None,1,,,0,50,50,50,250.120885500015,,,,,,,,,,,250.10708340001293,250.120885500015,250.120885500015,250.30422160000307,250.32053830000223,252.10495940002147,None,1,,,,000011,001,2024-10-09_13h02.57.397,cpt_test,2024.2.2,59.963434298561936,2024-10-09 13h06.48.963793 -0600,
52,D,0,None,51,51,0,None,1,,,0,51,51,51,252.11934850001126,,,,,,,,,,,252.10511840000981,252.11934850001126,252.11934850001126,252.30278420000104,252.319032600004,254.1033361000009,None,1,,,,000011,001,2024-10-09_13h02.57.397,cpt_test,2024.2.2,59.963434298561936,2024-10-09 13h06.48.963793 -0600,
53,X,1,x,52,52,0,x,1,0.36978500001714565,0.154663299996173,0,52,52,52,254.11807530000806,,,,,,,,,,,254.10347570001613,254.11807530000806,254.11807530000806,254.30089440001757,254.31745140001294,256.10165840000263,x,1,0.36978500001714565,0.154663299996173,,000011,001,2024-10-09_13h02.57.397,cpt_test,2024.2.2,59.963434298561936,2024-10-09 13h06.48.963793 -0600,
54,K,0,None,53,53,0,None,1,,,0,53,53,53,256.12022330000764,,,,,,,,,,,256.1018034000008,256.12022330000764,256.12022330000764,256.29956360001233,256.33225700000185,258.10054139999556,None,1,,,,000011,001,2024-10-09_13h02.57.397,cpt_test,2024.2.2,59.963434298561936,2024-10-09 13h06.48.963793 -0600,
55,X,1,x,54,54,0,x,1,0.35113019999698736,0.1529486000072211,0,54,54,54,258.1142949000059,,,,,,,,,,,258.1007097999973,258.1142949000059,258.1142949000059,258.3138267000031,258.3138267000031,260.11590180001804,x,1,0.35113019999698736,0.1529486000072211,,000011,001,2024-10-09_13h02.57.397,cpt_test,2024.2.2,59.963434298561936,2024-10-09 13h06.48.963793 -0600,
56,N,0,None,55,55,0,None,1,,,0,55,55,55,260.1363307000138,,,,,,,,,,,260.1161066000059,260.1363307000138,260.1363307000138,260.3128013999958,260.34583490001387,262.11468420000165,None,1,,,,000011,001,2024-10-09_13h02.57.397,cpt_test,2024.2.2,59.963434298561936,2024-10-09 13h06.48.963793 -0600,
57,M,0,None,56,56,0,None,1,,,0,56,56,56,262.1277171999973,,,,,,,,,,,262.114897499996,262.1277171999973,262.1277171999973,262.3111337000155,262.3275993000134,264.1122976000188,None,1,,,,000011,001,2024-10-09_13h02.57.397,cpt_test,2024.2.2,59.963434298561936,2024-10-09 13h06.48.963793 -0600,
58,X,1,x,57,57,0,x,1,0.3556638000009116,0.15910469999653287,0,57,57,57,264.12604120001197,,,,,,,,,,,264.1124882000149,264.12604120001197,264.12604120001197,264.3094124000054,264.3255615000089,266.11034350001137,x,1,0.3556638000009116,0.15910469999653287,,000011,001,2024-10-09_13h02.57.397,cpt_test,2024.2.2,59.963434298561936,2024-10-09 13h06.48.963793 -0600,
59,F,0,None,58,58,0,None,1,,,0,58,58,58,266.1245775000134,,,,,,,,,,,266.11049880000064,266.1245775000134,266.1245775000134,266.3078579000139,266.3240497999941,268.1082922000205,None,1,,,,000011,001,2024-10-09_13h02.57.397,cpt_test,2024.2.2,59.963434298561936,2024-10-09 13h06.48.963793 -0600,
60,A,0,None,59,59,0,None,1,,,0,59,59,59,268.1232374999963,,,,,,,,,,,268.10843130000285,268.1232374999963,268.1232374999963,268.3060747999989,268.32257370001753,270.1081666999962,None,1,,,,000011,001,2024-10-09_13h02.57.397,cpt_test,2024.2.2,59.963434298561936,2024-10-09 13h06.48.963793 -0600,
61,X,1,x,60,60,0,x,1,0.3200070000020787,0.1778632000205107,0,60,60,60,270.1210348000168,,,,,,,,,,,270.1083773999999,270.1210348000168,270.1210348000168,270.30449589999625,270.3210607000219,272.10627089999616,x,1,0.3200070000020787,0.1778632000205107,,000011,001,2024-10-09_13h02.57.397,cpt_test,2024.2.2,59.963434298561936,2024-10-09 13h06.48.963793 -0600,
62,V,0,None,61,61,0,None,1,,,0,61,61,61,272.11943469999824,,,,,,,,,,,272.1064819000021,272.11943469999824,272.11943469999824,272.3028669000196,272.31920320002246,274.1036820000154,None,1,,,,000011,001,2024-10-09_13h02.57.397,cpt_test,2024.2.2,59.963434298561936,2024-10-09 13h06.48.963793 -0600,
63,U,0,None,62,62,0,None,1,,,0,62,62,62,274.11819540002034,,,,,,,,,,,274.10382859999663,274.11819540002034,274.11819540002034,274.3008935000107,274.3174544000067,276.10218980000354,None,1,,,,000011,001,2024-10-09_13h02.57.397,cpt_test,2024.2.2,59.963434298561936,2024-10-09 13h06.48.963793 -0600,
64,M,0,None,63,63,0,None,1,,,0,63,63,63,276.11612220000825,,,,,,,,,,,276.10235920001287,276.11612220000825,276.11612220000825,276.29925670000375,276.31595879999804,278.11695120000513,None,1,,,278.11439649999375,000011,001,2024-10-09_13h02.57.397,cpt_test,2024.2.2,59.963434298561936,2024-10-09 13h06.48.963793 -0600,
65,X,1,x,64,64,0,x,1,0.3394914999953471,0.1730960999848321,0,64,64,64,278.13160570000764,,,,,,,,,,,278.1170944000187,278.13160570000764,278.13160570000764,278.31468460001634,278.3307104000123,280.1159498000052,x,1,0.3394914999953471,0.1730960999848321,,000011,001,2024-10-09_13h02.57.397,cpt_test,2024.2.2,59.963434298561936,2024-10-09 13h06.48.963793 -0600,
66,A,0,None,65,65,0,None,1,,,0,65,65,65,280.13079970001127,,,,,,,,,,,280.11609870000393,280.13079970001127,280.13079970001127,280.31423069999437,280.3299641000049,282.1136877000099,None,1,,,,000011,001,2024-10-09_13h02.57.397,cpt_test,2024.2.2,59.963434298561936,2024-10-09 13h06.48.963793 -0600,
67,N,0,None,66,66,0,None,1,,,0,66,66,66,282.1281992000004,,,,,,,,,,,282.11385140000493,282.1281992000004,282.1281992000004,282.31118350001634,282.3274542000145,284.1126029000152,None,1,,,,000011,001,2024-10-09_13h02.57.397,cpt_test,2024.2.2,59.963434298561936,2024-10-09 13h06.48.963793 -0600,
68,H,0,None,67,67,0,None,1,,,0,67,67,67,284.13349670000025,,,,,,,,,,,284.11278960001073,284.13349670000025,284.13349670000025,284.3096934000205,284.3425633000152,286.1105051000195,None,1,,,,000011,001,2024-10-09_13h02.57.397,cpt_test,2024.2.2,59.963434298561936,2024-10-09 13h06.48.963793 -0600,
69,A,0,None,68,68,0,None,1,,,0,68,68,68,286.12491990000126,,,,,,,,,,,286.1106598000042,286.12491990000126,286.12491990000126,286.3077382000047,286.324148100015,288.10863980001886,None,1,,,,000011,001,2024-10-09_13h02.57.397,cpt_test,2024.2.2,59.963434298561936,2024-10-09 13h06.48.963793 -0600,
70,X,1,x,69,69,0,x,1,0.41235679999226704,0.1882410000253003,0,69,69,69,288.12319680000655,,,,,,,,,,,288.1087833000056,288.12319680000655,288.12319680000655,288.30621330000577,288.32283859999734,290.1068731000123,x,1,0.41235679999226704,0.1882410000253003,,000011,001,2024-10-09_13h02.57.397,cpt_test,2024.2.2,59.963434298561936,2024-10-09 13h06.48.963793 -0600,
71,F,0,None,70,70,0,None,1,,,0,70,70,70,290.1212521000125,,,,,,,,,,,290.10702330002096,290.1212521000125,290.1212521000125,290.3049239999964,290.32081430000835,292.10583630000474,None,1,,,,000011,001,2024-10-09_13h02.57.397,cpt_test,2024.2.2,59.963434298561936,2024-10-09 13h06.48.963793 -0600,
72,N,0,None,71,71,0,None,1,,,0,71,71,71,292.12014100002125,,,,,,,,,,,292.1059855000058,292.12014100002125,292.12014100002125,292.30404390001786,292.3206443999952,294.10394010000164,None,1,,,,000011,001,2024-10-09_13h02.57.397,cpt_test,2024.2.2,59.963434298561936,2024-10-09 13h06.48.963793 -0600,
73,K,0,None,72,72,0,None,1,,,0,72,72,72,294.1182187999948,,,,,,,,,,,294.1040967000008,294.1182187999948,294.1182187999948,294.30130580000696,294.31781750000664,296.1020072000101,None,1,,,,000011,001,2024-10-09_13h02.57.397,cpt_test,2024.2.2,59.963434298561936,2024-10-09 13h06.48.963793 -0600,
74,Y,0,None,73,73,0,None,1,,,0,73,73,73,296.1166361000214,,,,,,,,,,,296.1021653000207,296.1166361000214,296.1166361000214,296.2995032000181,296.316060400015,298.10134760002256,None,1,,,,000011,001,2024-10-09_13h02.57.397,cpt_test,2024.2.2,59.963434298561936,2024-10-09 13h06.48.963793 -0600,
75,Y,0,None,74,74,0,None,1,,,0,74,74,74,298.1146629000141,,,,,,,,,,,298.1015343000181,298.1146629000141,298.1146629000141,298.31437930001994,298.31437930001994,300.11661870000535,None,1,,,,000011,001,2024-10-09_13h02.57.397,cpt_test,2024.2.2,59.963434298561936,2024-10-09 13h06.48.963793 -0600,
76,R,0,None,75,75,0,None,1,,,0,75,75,75,300.12975789999473,,,,,,,,,,,300.1168100000068,300.12975789999473,300.12975789999473,300.31291560002137,300.329498600011,302.1141525999992,None,1,,,,000011,001,2024-10-09_13h02.57.397,cpt_test,2024.2.2,59.963434298561936,2024-10-09 13h06.48.963793 -0600,
77,X,1,x,76,76,0,x,1,0.3651084000011906,0.196660299989162,0,76,76,76,302.1284852999961,,,,,,,,,,,302.1142981000012,302.1284852999961,302.1284852999961,302.3114904999966,302.3275789000036,304.1131297000102,x,1,0.3651084000011906,0.196660299989162,,000011,001,2024-10-09_13h02.57.397,cpt_test,2024.2.2,59.963434298561936,2024-10-09 13h06.48.963793 -0600,
78,R,0,None,77,77,0,None,1,,,0,77,77,77,304.12668650000705,,,,,,,,,,,304.1133420999977,304.12668650000705,304.12668650000705,304.3098302000144,304.32613220001804,306.1107608000166,None,1,,,,000011,001,2024-10-09_13h02.57.397,cpt_test,2024.2.2,59.963434298561936,2024-10-09 13h06.48.963793 -0600,
79,F,0,None,78,78,0,None,1,,,0,78,78,78,306.1251697000116,,,,,,,,,,,306.11092100001406,306.1251697000116,306.1251697000116,306.3079651000153,306.3243522999983,308.10897260002093,None,1,,,,000011,001,2024-10-09_13h02.57.397,cpt_test,2024.2.2,59.963434298561936,2024-10-09 13h06.48.963793 -0600,
80,K,0,None,79,79,0,None,1,,,0,79,79,79,308.12362160001067,,,,,,,,,,,308.1091144999955,308.12362160001067,308.12362160001067,308.3065136000223,308.3227678000112,310.1077424999967,None,1,,,,000011,001,2024-10-09_13h02.57.397,cpt_test,2024.2.2,59.963434298561936,2024-10-09 13h06.48.963793 -0600,
81,O,0,None,80,80,0,None,1,,,0,80,80,80,310.12156870000763,,,,,,,,,,,310.1079103999946,310.12156870000763,310.12156870000763,310.3047237000137,310.3212504000112,312.10565700000734,None,1,,,,000011,001,2024-10-09_13h02.57.397,cpt_test,2024.2.2,59.963434298561936,2024-10-09 13h06.48.963793 -0600,
82,F,0,None,81,81,0,None,1,,,0,81,81,81,312.11984349999693,,,,,,,,,,,312.10581300000194,312.11984349999693,312.11984349999693,312.3031544999976,312.3196467999951,314.104668200016,None,1,,,,000011,001,2024-10-09_13h02.57.397,cpt_test,2024.2.2,59.963434298561936,2024-10-09 13h06.48.963793 -0600,
83,F,0,None,82,82,0,None,1,,,0,82,82,82,314.1183844000043,,,,,,,,,,,314.10485470001004,314.1183844000043,314.1183844000043,314.301584300003,314.3179480000108,316.1025337000028,None,1,,,,000011,001,2024-10-09_13h02.57.397,cpt_test,2024.2.2,59.963434298561936,2024-10-09 13h06.48.963793 -0600,
84,W,0,None,83,83,0,None,1,,,0,83,83,83,316.12373650001246,,,,,,,,,,,316.10270129999844,316.12373650001246,316.12373650001246,316.29974079999374,316.3329706999939,318.10146100001293,None,1,,,,000011,001,2024-10-09_13h02.57.397,cpt_test,2024.2.2,59.963434298561936,2024-10-09 13h06.48.963793 -0600,
85,X,1,x,84,84,0,x,1,0.3911034000047948,0.19167329999618232,0,84,84,84,318.11496599999373,,,,,,,,,,,318.1016576999973,318.11496599999373,318.11496599999373,318.3145797000034,318.3145797000034,320.11674339999445,x,1,0.3911034000047948,0.19167329999618232,,000011,001,2024-10-09_13h02.57.397,cpt_test,2024.2.2,59.963434298561936,2024-10-09 13h06.48.963793 -0600,
86,J,0,None,85,85,0,None,1,,,0,85,85,85,320.1300594000204,,,,,,,,,,,320.116955400008,320.1300594000204,320.1300594000204,320.3130078999966,320.32942260001437,322.11489120000624,None,1,,,,000011,001,2024-10-09_13h02.57.397,cpt_test,2024.2.2,59.963434298561936,2024-10-09 13h06.48.963793 -0600,
87,N,0,None,86,86,0,None,1,,,0,86,86,86,322.1284702999983,,,,,,,,,,,322.1150791000109,322.1284702999983,322.1284702999983,322.31168929999694,322.327815800003,324.11428110001725,None,1,,,,000011,001,2024-10-09_13h02.57.397,cpt_test,2024.2.2,59.963434298561936,2024-10-09 13h06.48.963793 -0600,
88,X,1,x,87,87,0,x,1,0.4038083000050392,0.19153449998702854,0,87,87,87,324.12654500000644,,,,,,,,,,,324.114539400005,324.12654500000644,324.12654500000644,324.3097650000127,324.326336099999,326.11125010001706,x,1,0.4038083000050392,0.19153449998702854,,000011,001,2024-10-09_13h02.57.397,cpt_test,2024.2.2,59.963434298561936,2024-10-09 13h06.48.963793 -0600,
89,T,0,None,88,88,0,None,1,,,0,88,88,88,326.1251555000199,,,,,,,,,,,326.11144570002216,326.1251555000199,326.1251555000199,326.30824820001726,326.3247253000154,328.1085527999967,None,1,,,,000011,001,2024-10-09_13h02.57.397,cpt_test,2024.2.2,59.963434298561936,2024-10-09 13h06.48.963793 -0600,
90,I,0,None,89,89,0,x,0,0.4199369999987539,0.19570699997711927,0,89,89,89,328.12305449999985,,,,,,,,,,,328.1086900999944,328.12305449999985,328.12305449999985,328.30612560000736,328.3226387000177,330.10675219999393,x,0,0.4199369999987539,0.19570699997711927,,000011,001,2024-10-09_13h02.57.397,cpt_test,2024.2.2,59.963434298561936,2024-10-09 13h06.48.963793 -0600,
91,P,0,None,90,90,0,None,1,,,0,90,90,90,330.1215635999979,,,,,,,,,,,330.1069012999942,330.1215635999979,330.1215635999979,330.3044668000075,330.32110900001135,332.1052330000093,None,1,,,,000011,001,2024-10-09_13h02.57.397,cpt_test,2024.2.2,59.963434298561936,2024-10-09 13h06.48.963793 -0600,
92,X,1,x,91,91,0,x,1,0.46665950000169687,0.20145409999531694,0,91,91,91,332.1198829000059,,,,,,,,,,,332.10538090000045,332.1198829000059,332.1198829000059,332.30294230001164,332.319252300018,334.1038399999961,x,1,0.46665950000169687,0.20145409999531694,,000011,001,2024-10-09_13h02.57.397,cpt_test,2024.2.2,59.963434298561936,2024-10-09 13h06.48.963793 -0600,
93,B,0,None,92,92,0,None,1,,,0,92,92,92,334.1180424000195,,,,,,,,,,,334.10398899999564,334.1180424000195,334.1180424000195,334.3011828000017,334.31757760001346,336.1028096000082,None,1,,,,000011,001,2024-10-09_13h02.57.397,cpt_test,2024.2.2,59.963434298561936,2024-10-09 13h06.48.963793 -0600,
94,M,0,None,93,93,0,None,1,,,0,93,93,93,336.11658070000703,,,,,,,,,,,336.102959300013,336.11658070000703,336.11658070000703,336.3004353000142,336.31652620001114,338.1008817999973,None,1,,,,000011,001,2024-10-09_13h02.57.397,cpt_test,2024.2.2,59.963434298561936,2024-10-09 13h06.48.963793 -0600,
95,B,0,None,94,94,0,None,1,,,0,94,94,94,338.1158226999978,,,,,,,,,,,338.10102500001085,338.1158226999978,338.1158226999978,338.3148705000058,338.3148705000058,340.11579959999654,None,1,,,,000011,001,2024-10-09_13h02.57.397,cpt_test,2024.2.2,59.963434298561936,2024-10-09 13h06.48.963793 -0600,
96,I,0,None,95,95,0,None,1,,,0,95,95,95,340.13026190001983,,,,,,,,,,,340.1159492000006,340.13026190001983,340.13026190001983,340.3130999999994,340.32977090001805,342.1143635000044,None,1,,,,000011,001,2024-10-09_13h02.57.397,cpt_test,2024.2.2,59.963434298561936,2024-10-09 13h06.48.963793 -0600,
97,X,1,x,96,96,0,x,1,0.43278730000020005,0.1876267000043299,0,96,96,96,342.12843700000667,,,,,,,,,,,342.11450900000636,342.12843700000667,342.12843700000667,342.31175210000947,342.3281882000156,344.11285780000617,x,1,0.43278730000020005,0.1876267000043299,,000011,001,2024-10-09_13h02.57.397,cpt_test,2024.2.2,59.963434298561936,2024-10-09 13h06.48.963793 -0600,
98,J,0,None,97,97,0,None,1,,,0,97,97,97,344.1268941000162,,,,,,,,,,,344.11301930001355,344.1268941000162,344.1268941000162,344.31007770000724,344.32642580001266,346.1119185000134,None,1,,,,000011,001,2024-10-09_13h02.57.397,cpt_test,2024.2.2,59.963434298561936,2024-10-09 13h06.48.963793 -0600,
99,X,1,x,98,98,0,x,1,0.41400340001564473,0.18030199999338947,0,98,98,98,346.1252867000003,,,,,,,,,,,346.1121271000011,346.1252867000003,346.1252867000003,346.30854160001036,346.32466519999434,348.11004940001294,x,1,0.41400340001564473,0.18030199999338947,,000011,001,2024-10-09_13h02.57.397,cpt_test,2024.2.2,59.963434298561936,2024-10-09 13h06.48.963793 -0600,
100,U,0,None,99,99,0,None,1,,,0,99,99,99,348.1240591999958,,,,,,,,,,,348.11025200001313,348.1240591999958,348.1240591999958,348.3063500999997,348.33945860000676,350.10840050000115,None,1,,,,000011,001,2024-10-09_13h02.57.397,cpt_test,2024.2.2,59.963434298561936,2024-10-09 13h06.48.963793 -0600,
101,D,0,None,100,100,0,None,1,,,0,100,100,100,350.12183849999565,,,,,,,,,,,350.108616100013,350.12183849999565,350.12183849999565,350.305234200001,350.32135820001713,352.10611849999987,None,1,,,,000011,001,2024-10-09_13h02.57.397,cpt_test,2024.2.2,59.963434298561936,2024-10-09 13h06.48.963793 -0600,
102,X,1,x,101,101,0,x,1,0.37404439999954775,0.15835949999745935,0,101,101,101,352.12044550001156,,,,,,,,,,,352.1062944000005,352.12044550001156,352.12044550001156,352.3033928000077,352.3197469000006,354.1045099000039,x,1,0.37404439999954775,0.15835949999745935,,000011,001,2024-10-09_13h02.57.397,cpt_test,2024.2.2,59.963434298561936,2024-10-09 13h06.48.963793 -0600,
103,X,1,x,102,102,0,x,1,0.4843540000147186,0.18624360000831075,0,102,102,102,354.1185044000158,,,,,,,,,,,354.10466300000553,354.1185044000158,354.1185044000158,354.30204629999935,354.318081800011,356.1028989000188,x,1,0.4843540000147186,0.18624360000831075,,000011,001,2024-10-09_13h02.57.397,cpt_test,2024.2.2,59.963434298561936,2024-10-09 13h06.48.963793 -0600,
104,N,0,None,103,103,0,None,1,,,0,103,103,103,356.11687900000834,,,,,,,,,,,356.10305940001854,356.11687900000834,356.11687900000834,356.3004359000188,356.31653520002146,358.1015610000177,None,1,,,,000011,001,2024-10-09_13h02.57.397,cpt_test,2024.2.2,59.963434298561936,2024-10-09 13h06.48.963793 -0600,
105,U,0,None,104,104,0,None,1,,,0,104,104,104,358.115352599998,,,,,,,,,,,358.1017405000166,358.115352599998,358.115352599998,358.3149863000144,358.3149863000144,360.11594290001085,None,1,,,,000011,001,2024-10-09_13h02.57.397,cpt_test,2024.2.2,59.963434298561936,2024-10-09 13h06.48.963793 -0600,
106,T,0,None,105,105,0,None,1,,,0,105,105,105,360.1302052999963,,,,,,,,,,,360.1160913000058,360.1302052999963,360.1302052999963,360.3134024000028,360.33013000001665,362.11447770000086,None,1,,,,000011,001,2024-10-09_13h02.57.397,cpt_test,2024.2.2,59.963434298561936,2024-10-09 13h06.48.963793 -0600,
107,W,0,None,106,106,0,None,1,,,0,106,106,106,362.1287789000198,,,,,,,,,,,362.11462160001975,362.1287789000198,362.1287789000198,362.3120667000185,362.3284003000008,364.1135540000105,None,1,,,,000011,001,2024-10-09_13h02.57.397,cpt_test,2024.2.2,59.963434298561936,2024-10-09 13h06.48.963793 -0600,
108,N,0,None,107,107,0,None,1,,,0,107,107,107,364.1269888000097,,,,,,,,,,,364.11373830001685,364.1269888000097,364.1269888000097,364.310398600006,364.3264928999997,366.11206360001233,None,1,,,,000011,001,2024-10-09_13h02.57.397,cpt_test,2024.2.2,59.963434298561936,2024-10-09 13h06.48.963793 -0600,
109,R,0,None,108,108,0,None,1,,,0,108,108,108,366.1252983000013,,,,,,,,,,,366.1122583000106,366.1252983000013,366.1252983000013,366.30895269999746,366.3250304000103,368.11049459999776,None,1,,,,000011,001,2024-10-09_13h02.57.397,cpt_test,2024.2.2,59.963434298561936,2024-10-09 13h06.48.963793 -0600,
110,X,1,x,109,109,0,x,1,0.3744693000044208,0.16817960000480525,0,109,109,109,368.12375880000764,,,,,,,,,,,368.1106829000055,368.12375880000764,368.12375880000764,368.30690100000356,368.323475400015,370.1076436000003,x,1,0.3744693000044208,0.16817960000480525,,000011,001,2024-10-09_13h02.57.397,cpt_test,2024.2.2,59.963434298561936,2024-10-09 13h06.48.963793 -0600,
111,A,0,None,110,110,0,None,1,,,0,110,110,110,370.1224648000207,,,,,,,,,,,370.1077911000175,370.1224648000207,370.1224648000207,370.3052299999981,370.3215443000081,372.10629500000505,None,1,,,,000011,001,2024-10-09_13h02.57.397,cpt_test,2024.2.2,59.963434298561936,2024-10-09 13h06.48.963793 -0600,
112,X,1,x,111,111,0,x,1,0.4296189000015147,0.16140279997489415,0,111,111,111,372.1207862000156,,,,,,,,,,,372.10644250002224,372.1207862000156,372.1207862000156,372.3038541999995,372.32023320000735,374.1046494000184,x,1,0.4296189000015147,0.16140279997489415,,000011,001,2024-10-09_13h02.57.397,cpt_test,2024.2.2,59.963434298561936,2024-10-09 13h06.48.963793 -0600,
113,G,0,None,112,112,0,None,1,,,0,112,112,112,374.1188912000216,,,,,,,,,,,374.10481640000944,374.1188912000216,374.1188912000216,374.3021526999946,374.3185009000008,376.10363220001454,None,1,,,,000011,001,2024-10-09_13h02.57.397,cpt_test,2024.2.2,59.963434298561936,2024-10-09 13h06.48.963793 -0600,
114,O,0,None,113,113,0,None,1,,,0,113,113,113,376.1174258000101,,,,,,,,,,,376.10382240000763,376.1174258000101,376.1174258000101,376.3002333000186,376.31681180000305,378.10289249999914,None,1,,,,000011,001,2024-10-09_13h02.57.397,cpt_test,2024.2.2,59.963434298561936,2024-10-09 13h06.48.963793 -0600,
115,U,0,None,114,114,0,None,1,,,0,114,114,114,378.1157169000071,,,,,,,,,,,378.1031304000062,378.1157169000071,378.1157169000071,378.31500230001984,378.31500230001984,380.11636440001894,None,1,,,,000011,001,2024-10-09_13h02.57.397,cpt_test,2024.2.2,59.963434298561936,2024-10-09 13h06.48.963793 -0600,
116,X,1,x,115,115,0,x,1,0.3589415999886114,0.17786500000511296,0,115,115,115,380.13071590001346,,,,,,,,,,,380.1165254000225,380.13071590001346,380.13071590001346,380.3137803999998,380.3300170000002,382.11494140001014,x,1,0.3589415999886114,0.17786500000511296,,000011,001,2024-10-09_13h02.57.397,cpt_test,2024.2.2,59.963434298561936,2024-10-09 13h06.48.963793 -0600,
117,X,1,x,116,116,0,x,1,0.3900448000058532,0.1678247000090778,0,116,116,116,382.1287728000025,,,,,,,,,,,382.11512400000356,382.1287728000025,382.1287728000025,382.3121022999985,382.32862030001706,384.1128706000163,x,1,0.3900448000058532,0.1678247000090778,,000011,001,2024-10-09_13h02.57.397,cpt_test,2024.2.2,59.963434298561936,2024-10-09 13h06.48.963793 -0600,
118,C,0,None,117,117,0,None,1,,,0,117,117,117,384.1272530000133,,,,,,,,,,,384.1130167999945,384.1272530000133,384.1272530000133,384.3104907000088,384.3268614000117,386.1114884999988,None,1,,,,000011,001,2024-10-09_13h02.57.397,cpt_test,2024.2.2,59.963434298561936,2024-10-09 13h06.48.963793 -0600,
119,A,0,None,118,118,0,None,1,,,0,118,118,118,386.1253940000024,,,,,,,,,,,386.11163349999697,386.1253940000024,386.1253940000024,386.30873590000556,386.3249747999944,388.10960769999656,None,1,,,,000011,001,2024-10-09_13h02.57.397,cpt_test,2024.2.2,59.963434298561936,2024-10-09 13h06.48.963793 -0600,
120,X,1,x,119,119,0,x,1,0.3158179000020027,0.15778290000162087,0,119,119,119,388.1242184000148,,,,,,,,,,,388.1097670000163,388.1242184000148,388.1242184000148,388.307457500021,388.3233463000215,390.1082813999965,x,1,0.3158179000020027,0.15778290000162087,,000011,001,2024-10-09_13h02.57.397,cpt_test,2024.2.2,59.963434298561936,2024-10-09 13h06.48.963793 -0600,
121,H,0,None,120,120,0,None,1,,,0,120,120,120,390.12242729999707,,,,,,,,,,,390.10844630000065,390.12242729999707,390.12242729999707,390.3053317000158,390.3219078000111,392.1064361000026,None,1,,,,000011,001,2024-10-09_13h02.57.397,cpt_test,2024.2.2,59.963434298561936,2024-10-09 13h06.48.963793 -0600,
122,M,0,None,121,121,0,None,1,,,0,121,121,121,392.12065820000134,,,,,,,,,,,392.1065898000088,392.12065820000134,392.12065820000134,392.303868899995,392.32039229999646,394.1048638000211,None,1,,,,000011,001,2024-10-09_13h02.57.397,cpt_test,2024.2.2,59.963434298561936,2024-10-09 13h06.48.963793 -0600,
123,V,0,None,122,122,0,None,1,,,0,122,122,122,394.11930350001785,,,,,,,,,,,394.10503030000837,394.11930350001785,394.11930350001785,394.3020681000198,394.31864199999836,396.1037756000005,None,1,,,,000011,001,2024-10-09_13h02.57.397,cpt_test,2024.2.2,59.963434298561936,2024-10-09 13h06.48.963793 -0600,
124,K,0,None,123,123,0,None,1,,,0,123,123,123,396.1173815999937,,,,,,,,,,,396.1039565000101,396.1173815999937,396.1173815999937,396.3006804000179,396.3171540000185,398.1020021000004,None,1,,,,000011,001,2024-10-09_13h02.57.397,cpt_test,2024.2.2,59.963434298561936,2024-10-09 13h06.48.963793 -0600,
125,G,0,None,124,124,0,None,1,,,0,124,124,124,398.1157141000149,,,,,,,,,,,398.10217240001657,398.1157141000149,398.1157141000149,398.31545660001575,398.31545660001575,400.1165144999977,None,1,,,,000011,001,2024-10-09_13h02.57.397,cpt_test,2024.2.2,59.963434298561936,2024-10-09 13h06.48.963793 -0600,
126,A,0,None,125,125,0,None,1,,,0,125,125,125,400.13086030000704,,,,,,,,,,,400.11666290002177,400.13086030000704,400.13086030000704,400.31402429999434,400.3305557999993,402.1149294000061,None,1,,,,000011,001,2024-10-09_13h02.57.397,cpt_test,2024.2.2,59.963434298561936,2024-10-09 13h06.48.963793 -0600,
127,X,1,x,126,126,0,x,1,0.4721625999954995,0.1884872000082396,0,126,126,126,402.1294423000072,,,,,,,,,,,402.1150775999995,402.1294423000072,402.1294423000072,402.31238519999897,402.32858590001706,404.11316130001796,x,1,0.4721625999954995,0.1884872000082396,,000011,001,2024-10-09_13h02.57.397,cpt_test,2024.2.2,59.963434298561936,2024-10-09 13h06.48.963793 -0600,
128,N,0,None,127,127,0,None,1,,,0,127,127,127,404.12741899999673,,,,,,,,,,,404.11331760001485,404.12741899999673,404.12741899999673,404.3108569000033,404.327028300002,406.11188609999954,None,1,,,,000011,001,2024-10-09_13h02.57.397,cpt_test,2024.2.2,59.963434298561936,2024-10-09 13h06.48.963793 -0600,
129,Y,0,None,128,128,0,None,1,,,0,128,128,128,406.12557970001944,,,,,,,,,,,406.11206230000244,406.12557970001944,406.12557970001944,406.3088720999949,406.3253090000071,408.11025140000856,None,1,,,,000011,001,2024-10-09_13h02.57.397,cpt_test,2024.2.2,59.963434298561936,2024-10-09 13h06.48.963793 -0600,
130,W,0,None,129,129,0,None,1,,,0,129,129,129,408.12449149999884,,,,,,,,,,,408.11041160000605,408.12449149999884,408.12449149999884,408.30747960001463,408.32386649999535,410.1082081000204,None,1,,,,000011,001,2024-10-09_13h02.57.397,cpt_test,2024.2.2,59.963434298561936,2024-10-09 13h06.48.963793 -0600,
131,L,0,None,130,130,0,None,1,,,0,130,130,130,410.1226828000217,,,,,,,,,,,410.10835960000986,410.1226828000217,410.1226828000217,410.30592250000336,410.32227920001606,412.10727219999535,None,1,,,,000011,001,2024-10-09_13h02.57.397,cpt_test,2024.2.2,59.963434298561936,2024-10-09 13h06.48.963793 -0600,
132,F,0,None,131,131,0,None,1,,,0,131,131,131,412.12075930001447,,,,,,,,,,,412.1074598999985,412.12075930001447,412.12075930001447,412.3038960999984,412.320561200002,414.1053568000207,None,1,,,,000011,001,2024-10-09_13h02.57.397,cpt_test,2024.2.2,59.963434298561936,2024-10-09 13h06.48.963793 -0600,
133,E,0,None,132,132,0,None,1,,,0,132,132,132,414.11933740001405,,,,,,,,,,,414.10552420001477,414.11933740001405,414.11933740001405,414.30226409999887,414.31879570000456,416.1033749000053,None,1,,,,000011,001,2024-10-09_13h02.57.397,cpt_test,2024.2.2,59.963434298561936,2024-10-09 13h06.48.963793 -0600,
134,L,0,None,133,133,0,None,1,,,0,133,133,133,416.1176283000095,,,,,,,,,,,416.10354320000624,416.1176283000095,416.1176283000095,416.30089030001545,416.3172388999956,418.10232430000906,None,1,,,,000011,001,2024-10-09_13h02.57.397,cpt_test,2024.2.2,59.963434298561936,2024-10-09 13h06.48.963793 -0600,
135,K,0,None,134,134,0,None,1,,,0,134,134,134,418.1159309000068,,,,,,,,,,,418.10250700000324,418.1159309000068,418.1159309000068,418.3157211000216,418.3157211000216,420.1167453000089,None,1,,,,000011,001,2024-10-09_13h02.57.397,cpt_test,2024.2.2,59.963434298561936,2024-10-09 13h06.48.963793 -0600,
136,Q,0,None,135,135,0,None,1,,,0,135,135,135,420.1308462000161,,,,,,,,,,,420.11688980000326,420.1308462000161,420.1308462000161,420.31404339999426,420.3303809000063,422.11523530000704,None,1,,,,000011,001,2024-10-09_13h02.57.397,cpt_test,2024.2.2,59.963434298561936,2024-10-09 13h06.48.963793 -0600,
137,X,1,x,136,136,0,x,1,0.3808790000039153,0.19147250000969507,0,136,136,136,422.12946130000637,,,,,,,,,,,422.11539980000816,422.12946130000637,422.12946130000637,422.3126433000143,422.3288123999955,424.113359400013,x,1,0.3808790000039153,0.19147250000969507,,000011,001,2024-10-09_13h02.57.397,cpt_test,2024.2.2,59.963434298561936,2024-10-09 13h06.48.963793 -0600,
138,J,0,None,137,137,0,None,1,,,0,137,137,137,424.12767869999516,,,,,,,,,,,424.11352300000726,424.12767869999516,424.12767869999516,424.3105573000212,424.3270735999977,426.11298619999434,None,1,,,,000011,001,2024-10-09_13h02.57.397,cpt_test,2024.2.2,59.963434298561936,2024-10-09 13h06.48.963793 -0600,
139,X,1,x,138,138,0,x,1,0.5284072000067681,0.1872097000014037,0,138,138,138,426.1261224000191,,,,,,,,,,,426.113193600002,426.1261224000191,426.1261224000191,426.309421700018,426.3255646000034,428.11006800000905,x,1,0.5284072000067681,0.1872097000014037,,000011,001,2024-10-09_13h02.57.397,cpt_test,2024.2.2,59.963434298561936,2024-10-09 13h06.48.963793 -0600,
140,E,0,None,139,139,0,None,1,,,0,139,139,139,428.1246334000025,,,,,,,,,,,428.1102205000061,428.1246334000025,428.1246334000025,428.30770520001533,428.3240125000011,430.1084236000024,None,1,,,,000011,001,2024-10-09_13h02.57.397,cpt_test,2024.2.2,59.963434298561936,2024-10-09 13h06.48.963793 -0600,
141,T,0,None,140,140,0,None,1,,,0,140,140,140,430.12251460002153,,,,,,,,,,,430.10857100001886,430.12251460002153,430.12251460002153,430.305875799997,430.3221525000117,432.1069292000029,None,1,,,,000011,001,2024-10-09_13h02.57.397,cpt_test,2024.2.2,59.963434298561936,2024-10-09 13h06.48.963793 -0600,
142,X,1,x,141,141,0,x,1,0.4174588000169024,0.16878979999455623,0,141,141,141,432.1212974000082,,,,,,,,,,,432.10707870000624,432.1212974000082,432.1212974000082,432.304314900015,432.32063140001264,434.10505159999593,x,1,0.4174588000169024,0.16878979999455623,,000011,001,2024-10-09_13h02.57.397,cpt_test,2024.2.2,59.963434298561936,2024-10-09 13h06.48.963793 -0600,
143,Q,0,None,142,142,0,None,1,,,0,142,142,142,434.11972519999836,,,,,,,,,,,434.10521170002175,434.11972519999836,434.11972519999836,434.3028994000051,434.319127499999,436.1037526,None,1,,,,000011,001,2024-10-09_13h02.57.397,cpt_test,2024.2.2,59.963434298561936,2024-10-09 13h06.48.963793 -0600,
144,V,0,None,143,143,0,None,1,,,0,143,143,143,436.11796380000305,,,,,,,,,,,436.103912200022,436.11796380000305,436.11796380000305,436.3008529000217,436.317180300015,438.10215069999686,None,1,,,,000011,001,2024-10-09_13h02.57.397,cpt_test,2024.2.2,59.963434298561936,2024-10-09 13h06.48.963793 -0600,
145,Y,0,None,144,144,0,None,1,,,0,144,144,144,438.11624480001046,,,,,,,,,,,438.10235120001016,438.11624480001046,438.11624480001046,438.2994227000163,438.3154709000082,440.11710299999686,None,1,,,440.1144120999961,000011,001,2024-10-09_13h02.57.397,cpt_test,2024.2.2,59.963434298561936,2024-10-09 13h06.48.963793 -0600,
146,O,0,None,145,145,0,None,1,,,0,145,145,145,440.13132650000625,,,,,,,,,,,440.117253000004,440.13132650000625,440.13132650000625,440.3146311000164,440.3305534000101,442.11537090002093,None,1,,,,000011,001,2024-10-09_13h02.57.397,cpt_test,2024.2.2,59.963434298561936,2024-10-09 13h06.48.963793 -0600,
147,T,0,None,146,146,0,None,1,,,0,146,146,146,442.12977030000184,,,,,,,,,,,442.115524199995,442.12977030000184,442.12977030000184,442.3126591000182,442.3291591000161,444.1129020000226,None,1,,,,000011,001,2024-10-09_13h02.57.397,cpt_test,2024.2.2,59.963434298561936,2024-10-09 13h06.48.963793 -0600,
148,X,1,x,147,147,0,x,1,0.3635041999805253,0.17243340000277385,0,147,147,147,444.1274887000036,,,,,,,,,,,444.11304470000323,444.1274887000036,444.1274887000036,444.3109849000175,444.32755879999604,446.1119697999966,x,1,0.3635041999805253,0.17243340000277385,,000011,001,2024-10-09_13h02.57.397,cpt_test,2024.2.2,59.963434298561936,2024-10-09 13h06.48.963793 -0600,
149,T,0,None,148,148,0,None,1,,,0,148,148,148,446.12625620001927,,,,,,,,,,,446.1121276000049,446.12625620001927,446.12625620001927,446.309500000003,446.3258039000211,448.1109480000159,None,1,,,,000011,001,2024-10-09_13h02.57.397,cpt_test,2024.2.2,59.963434298561936,2024-10-09 13h06.48.963793 -0600,
150,S,0,None,149,149,0,None,1,,,0,149,149,149,448.1245143999986,,,,,,,,,,,448.11115130002145,448.1245143999986,448.1245143999986,448.30787650001,448.32414700000663,450.10875730001135,None,1,,,,000011,001,2024-10-09_13h02.57.397,cpt_test,2024.2.2,59.963434298561936,2024-10-09 13h06.48.963793 -0600,
151,L,0,None,150,150,0,None,1,,,0,150,150,150,450.1228176000004,,,,,,,,,,,450.10892110000714,450.1228176000004,450.1228176000004,450.30616030000965,450.3225863999978,452.1069862000004,None,1,,,,000011,001,2024-10-09_13h02.57.397,cpt_test,2024.2.2,59.963434298561936,2024-10-09 13h06.48.963793 -0600,
152,V,0,None,151,151,0,None,1,,,0,151,151,151,452.12104399999953,,,,,,,,,,,452.1071326000092,452.12104399999953,452.12104399999953,452.30433159999666,452.3209779000026,454.1053272999998,None,1,,,,000011,001,2024-10-09_13h02.57.397,cpt_test,2024.2.2,59.963434298561936,2024-10-09 13h06.48.963793 -0600,
153,C,0,None,152,152,0,None,1,,,0,152,152,152,454.1199081999948,,,,,,,,,,,454.10547969999607,454.1199081999948,454.1199081999948,454.3029860999959,454.31924720000825,456.10371240001405,None,1,,,,000011,001,2024-10-09_13h02.57.397,cpt_test,2024.2.2,59.963434298561936,2024-10-09 13h06.48.963793 -0600,
154,U,0,None,153,153,0,None,1,,,0,153,153,153,456.1179523000028,,,,,,,,,,,456.1038673000003,456.1179523000028,456.1179523000028,456.30133010001737,456.31765730000916,458.10130080001545,None,1,,,,000011,001,2024-10-09_13h02.57.397,cpt_test,2024.2.2,59.963434298561936,2024-10-09 13h06.48.963793 -0600,
155,X,1,x,154,154,0,x,1,0.3886336000286974,0.17440989997703582,0,154,154,154,458.11601460000384,,,,,,,,,,,458.1014414000092,458.11601460000384,458.11601460000384,458.31546280000475,458.31546280000475,460.1004954999953,x,1,0.3886336000286974,0.17440989997703582,,000011,001,2024-10-09_13h02.57.397,cpt_test,2024.2.2,59.963434298561936,2024-10-09 13h06.48.963793 -0600,
156,X,1,x,155,155,0,x,1,0.42514390000724234,0.1504209999984596,0,155,155,155,460.1146214000182,,,,,,,,,,,460.10065300000133,460.1146214000182,460.1146214000182,460.31430890000775,460.31430890000775,462.1156209000037,x,1,0.42514390000724234,0.1504209999984596,,000011,001,2024-10-09_13h02.57.397,cpt_test,2024.2.2,59.963434298561936,2024-10-09 13h06.48.963793 -0600,
157,L,0,None,156,156,0,None,1,,,0,156,156,156,462.1298529000196,,,,,,,,,,,462.11577319999924,462.1298529000196,462.1298529000196,462.31316479999805,462.32923580001807,464.11639209999703,None,1,,,,000011,001,2024-10-09_13h02.57.397,cpt_test,2024.2.2,59.963434298561936,2024-10-09 13h06.48.963793 -0600,
158,W,0,None,157,157,0,None,1,,,0,157,157,157,464.1283756000048,,,,,,,,,,,464.1166357000184,464.1283756000048,464.1283756000048,464.3111673000094,464.3272143000213,466.1114758000185,None,1,,,,000011,001,2024-10-09_13h02.57.397,cpt_test,2024.2.2,59.963434298561936,2024-10-09 13h06.48.963793 -0600,
159,A,0,None,158,158,0,None,1,,,0,158,158,158,466.1260551000014,,,,,,,,,,,466.11161390002235,466.1260551000014,466.1260551000014,466.30920089999563,466.32556300002034,468.1115343999991,None,1,,,,000011,001,2024-10-09_13h02.57.397,cpt_test,2024.2.2,59.963434298561936,2024-10-09 13h06.48.963793 -0600,
160,X,1,x,159,159,0,x,1,0.3709238000155892,0.17891149999923073,0,159,159,159,468.12494110001717,,,,,,,,,,,468.11171190001187,468.12494110001717,468.12494110001717,468.30807280002045,468.3243134000222,470.10877819999587,x,1,0.3709238000155892,0.17891149999923073,,000011,001,2024-10-09_13h02.57.397,cpt_test,2024.2.2,59.963434298561936,2024-10-09 13h06.48.963793 -0600,
161,A,0,None,160,160,0,None,1,,,0,160,160,160,470.12327619999996,,,,,,,,,,,470.10893010001746,470.12327619999996,470.12327619999996,470.30611610002234,470.3228141000145,472.10703959999955,None,1,,,,000011,001,2024-10-09_13h02.57.397,cpt_test,2024.2.2,59.963434298561936,2024-10-09 13h06.48.963793 -0600,
162,M,0,None,161,161,0,None,1,,,0,161,161,161,472.1216745999991,,,,,,,,,,,472.1071763000218,472.1216745999991,472.1216745999991,472.3048433000222,472.3211158000049,474.10561400000006,None,1,,,,000011,001,2024-10-09_13h02.57.397,cpt_test,2024.2.2,59.963434298561936,2024-10-09 13h06.48.963793 -0600,
163,X,1,x,162,162,0,x,1,0.330941200023517,0.17848010000307113,0,162,162,162,474.11999430001015,,,,,,,,,,,474.1057664999971,474.11999430001015,474.11999430001015,474.30292420001933,474.31925679999404,476.10380219999934,x,1,0.330941200023517,0.17848010000307113,,000011,001,2024-10-09_13h02.57.397,cpt_test,2024.2.2,59.963434298561936,2024-10-09 13h06.48.963793 -0600,
164,X,1,x,163,163,0,x,1,0.4117726999975275,0.17806849998305552,0,163,163,163,476.118043399998,,,,,,,,,,,476.10396589999436,476.118043399998,476.118043399998,476.3015662000107,476.3178928999987,478.1020344000135,x,1,0.4117726999975275,0.17806849998305552,,000011,001,2024-10-09_13h02.57.397,cpt_test,2024.2.2,59.963434298561936,2024-10-09 13h06.48.963793 -0600,
165,K,0,None,164,164,0,None,1,,,0,164,164,164,478.1163382999948,,,,,,,,,,,478.10218879999593,478.1163382999948,478.1163382999948,478.2995516000083,478.3161928000045,480.10068870001123,None,1,,,,000011,001,2024-10-09_13h02.57.397,cpt_test,2024.2.2,59.963434298561936,2024-10-09 13h06.48.963793 -0600,
166,X,1,x,165,165,0,x,1,0.431180299987318,0.15484760000254028,0,165,165,165,480.1151078999974,,,,,,,,,,,480.1008453000104,480.1151078999974,480.1151078999974,480.314505700022,480.314505700022,482.1155471999955,x,1,0.431180299987318,0.15484760000254028,,000011,001,2024-10-09_13h02.57.397,cpt_test,2024.2.2,59.963434298561936,2024-10-09 13h06.48.963793 -0600,
167,M,0,None,166,166,0,None,1,,,0,166,166,166,482.1302385000163,,,,,,,,,,,482.11570880000363,482.1302385000163,482.1302385000163,482.3133010000165,482.3294143000094,484.1142465000157,None,1,,,,000011,001,2024-10-09_13h02.57.397,cpt_test,2024.2.2,59.963434298561936,2024-10-09 13h06.48.963793 -0600,
168,X,1,x,167,167,0,x,1,0.333828300004825,0.15919360000407323,0,167,167,167,484.12824580000597,,,,,,,,,,,484.11440350001794,484.12824580000597,484.12824580000597,484.3116001000162,484.32788710002205,486.1125330000068,x,1,0.333828300004825,0.15919360000407323,,000011,001,2024-10-09_13h02.57.397,cpt_test,2024.2.2,59.963434298561936,2024-10-09 13h06.48.963793 -0600,
169,A,0,None,168,168,0,None,1,,,0,168,168,168,486.1267765999946,,,,,,,,,,,486.11268500000006,486.1267765999946,486.1267765999946,486.3098594000039,486.3263313000207,488.1105313000153,None,1,,,,000011,001,2024-10-09_13h02.57.397,cpt_test,2024.2.2,59.963434298561936,2024-10-09 13h06.48.963793 -0600,
170,X,1,x,169,169,0,x,1,0.33438280000700615,0.17492570000467822,0,169,169,169,488.1249891000043,,,,,,,,,,,488.1106839000131,488.1249891000043,488.1249891000043,488.30823840000085,488.3246058000077,490.10879019999993,x,1,0.33438280000700615,0.17492570000467822,,000011,001,2024-10-09_13h02.57.397,cpt_test,2024.2.2,59.963434298561936,2024-10-09 13h06.48.963793 -0600,
171,L,0,None,170,170,0,None,1,,,0,170,170,170,490.1233018000203,,,,,,,,,,,490.1089403000078,490.1233018000203,490.1233018000203,490.3067318999965,490.3228788000124,492.1072162000055,None,1,,,,000011,001,2024-10-09_13h02.57.397,cpt_test,2024.2.2,59.963434298561936,2024-10-09 13h06.48.963793 -0600,
172,E,0,None,171,171,0,x,0,0.35949729999992996,0.21940170001471415,0,171,171,171,492.1216195000161,,,,,,,,,,,492.1073600999953,492.1216195000161,492.1216195000161,492.3047554999939,492.3212017000187,494.1053886000009,x,0,0.35949729999992996,0.21940170001471415,,000011,001,2024-10-09_13h02.57.397,cpt_test,2024.2.2,59.963434298561936,2024-10-09 13h06.48.963793 -0600,
173,T,0,None,172,172,0,None,1,,,0,172,172,172,494.11994900001446,,,,,,,,,,,494.10553430000436,494.11994900001446,494.11994900001446,494.3033941000176,494.3196476000012,496.1039099000045,None,1,,,,000011,001,2024-10-09_13h02.57.397,cpt_test,2024.2.2,59.963434298561936,2024-10-09 13h06.48.963793 -0600,
174,F,0,None,173,173,0,None,1,,,0,173,173,173,496.11846890000743,,,,,,,,,,,496.1040580999979,496.11846890000743,496.11846890000743,496.3016755999997,496.3182846000127,498.10268159999396,None,1,,,,000011,001,2024-10-09_13h02.57.397,cpt_test,2024.2.2,59.963434298561936,2024-10-09 13h06.48.963793 -0600,
175,M,0,None,174,174,0,None,1,,,0,174,174,174,498.11658170001465,,,,,,,,,,,498.1028382999939,498.11658170001465,498.11658170001465,498.3001719000167,498.31623230001424,500.10075830001733,None,1,,,,000011,001,2024-10-09_13h02.57.397,cpt_test,2024.2.2,59.963434298561936,2024-10-09 13h06.48.963793 -0600,
176,Q,0,None,175,175,0,None,1,,,0,175,175,175,500.1152248000144,,,,,,,,,,,500.10091010000906,500.1152248000144,500.1152248000144,500.31464520000736,500.31464520000736,502.11544870000216,None,1,,,,000011,001,2024-10-09_13h02.57.397,cpt_test,2024.2.2,59.963434298561936,2024-10-09 13h06.48.963793 -0600,
177,M,0,None,176,176,0,None,1,,,0,176,176,176,502.13001530000474,,,,,,,,,,,502.11560140000074,502.13001530000474,502.13001530000474,502.31318009999814,502.32952590001514,504.114249700011,None,1,,,,000011,001,2024-10-09_13h02.57.397,cpt_test,2024.2.2,59.963434298561936,2024-10-09 13h06.48.963793 -0600,
178,X,1,x,177,177,0,x,1,0.3958652000001166,0.17858370000612922,0,177,177,177,504.12865880000754,,,,,,,,,,,504.114405100001,504.12865880000754,504.12865880000754,504.3124907000165,504.3278601000202,506.113356100017,x,1,0.3958652000001166,0.17858370000612922,506.1105696000159,000011,001,2024-10-09_13h02.57.397,cpt_test,2024.2.2,59.963434298561936,2024-10-09 13h06.48.963793 -0600,
179,V,0,None,178,178,0,None,1,,,0,178,178,178,506.12703659999534,,,,,,,,,,,506.1135232000088,506.12703659999534,506.12703659999534,506.31007999999565,506.3264676000108,508.1121664000093,None,1,,,,000011,001,2024-10-09_13h02.57.397,cpt_test,2024.2.2,59.963434298561936,2024-10-09 13h06.48.963793 -0600,
180,M,0,None,179,179,0,None,1,,,0,179,179,179,508.124785299995,,,,,,,,,,,508.11238570002024,508.124785299995,508.124785299995,508.3083011000126,508.3259468000033,510.10982630000217,None,1,,,,000011,001,2024-10-09_13h02.57.397,cpt_test,2024.2.2,59.963434298561936,2024-10-09 13h06.48.963793 -0600,
181,P,0,None,180,180,0,None,1,,,0,180,180,180,510.1234284999955,,,,,,,,,,,510.11002170000575,510.1234284999955,510.1234284999955,510.3067879000155,510.323011600005,512.1080538000097,None,1,,,,000011,001,2024-10-09_13h02.57.397,cpt_test,2024.2.2,59.963434298561936,2024-10-09 13h06.48.963793 -0600,
182,K,0,None,181,181,0,None,1,,,0,181,181,181,512.1220686000015,,,,,,,,,,,512.1082599000074,512.1220686000015,512.1220686000015,512.3051262000226,512.3215607000166,514.1063835000095,None,1,,,,000011,001,2024-10-09_13h02.57.397,cpt_test,2024.2.2,59.963434298561936,2024-10-09 13h06.48.963793 -0600,
183,V,0,None,182,182,0,None,1,,,0,182,182,182,514.1202064999961,,,,,,,,,,,514.1065548000042,514.1202064999961,514.1202064999961,514.3029818000214,514.3197214000102,516.1062586000189,None,1,,,,000011,001,2024-10-09_13h02.57.397,cpt_test,2024.2.2,59.963434298561936,2024-10-09 13h06.48.963793 -0600,
184,G,0,None,183,183,0,None,1,,,0,183,183,183,516.1184647000046,,,,,,,,,,,516.106505600008,516.1184647000046,516.1184647000046,516.3021123000071,516.3183698000212,518.102274600009,None,1,,,,000011,001,2024-10-09_13h02.57.397,cpt_test,2024.2.2,59.963434298561936,2024-10-09 13h06.48.963793 -0600,
185,L,0,None,184,184,0,None,1,,,0,184,184,184,518.1168643000128,,,,,,,,,,,518.1024141999951,518.1168643000128,518.1168643000128,518.3000463000208,518.3162546000094,520.1013726000092,None,1,,,,000011,001,2024-10-09_13h02.57.397,cpt_test,2024.2.2,59.963434298561936,2024-10-09 13h06.48.963793 -0600,
186,Q,0,None,185,185,0,None,1,,,0,185,185,185,520.1153015000164,,,,,,,,,,,520.1015600000101,520.1153015000164,520.1153015000164,520.298503900005,520.3149719000212,522.1168983000098,None,1,,,522.1134046000079,000011,001,2024-10-09_13h02.57.397,cpt_test,2024.2.2,59.963434298561936,2024-10-09 13h06.48.963793 -0600,
187,N,0,None,186,186,0,None,1,,,0,186,186,186,522.1300837000017,,,,,,,,,,,522.1170890000067,522.1300837000017,522.1300837000017,522.3135751000082,522.3299278000195,524.114189200016,None,1,,,,000011,001,2024-10-09_13h02.57.397,cpt_test,2024.2.2,59.963434298561936,2024-10-09 13h06.48.963793 -0600,
188,K,0,None,187,187,0,None,1,,,0,187,187,187,524.1287905000208,,,,,,,,,,,524.114332600002,524.1287905000208,524.1287905000208,524.3119041000027,524.3280958000105,526.1129141999991,None,1,,,,000011,001,2024-10-09_13h02.57.397,cpt_test,2024.2.2,59.963434298561936,2024-10-09 13h06.48.963793 -0600,
189,C,0,None,188,188,0,None,1,,,0,188,188,188,526.1270736000151,,,,,,,,,,,526.1130816999939,526.1270736000151,526.1270736000151,526.3104712000058,526.3268649000092,528.1105304000084,None,1,,,,000011,001,2024-10-09_13h02.57.397,cpt_test,2024.2.2,59.963434298561936,2024-10-09 13h06.48.963793 -0600,
190,Z,0,None,189,189,0,None,1,,,0,189,189,189,528.1253353000211,,,,,,,,,,,528.1106702999969,528.1253353000211,528.1253353000211,528.3087255000137,528.3249338000023,530.1095211000065,None,1,,,,000011,001,2024-10-09_13h02.57.397,cpt_test,2024.2.2,59.963434298561936,2024-10-09 13h06.48.963793 -0600,
191,I,0,None,190,190,0,None,1,,,0,190,190,190,530.1236677000124,,,,,,,,,,,530.1096596000134,530.1236677000124,530.1236677000124,530.3068095000053,530.3233388999943,532.1077301000187,None,1,,,,000011,001,2024-10-09_13h02.57.397,cpt_test,2024.2.2,59.963434298561936,2024-10-09 13h06.48.963793 -0600,
192,J,0,None,191,191,0,None,1,,,0,191,191,191,532.122314200009,,,,,,,,,,,532.1078763999976,532.122314200009,532.122314200009,532.3058481000189,532.3221588000015,534.1060810000054,None,1,,,,000011,001,2024-10-09_13h02.57.397,cpt_test,2024.2.2,59.963434298561936,2024-10-09 13h06.48.963793 -0600,
193,X,1,x,192,192,0,x,1,0.443422999989707,0.2001293000066653,0,192,192,192,534.120779000019,,,,,,,,,,,534.1062173999962,534.120779000019,534.120779000019,534.3033984000213,534.320067099994,536.104756100016,x,1,0.443422999989707,0.2001293000066653,,000011,001,2024-10-09_13h02.57.397,cpt_test,2024.2.2,59.963434298561936,2024-10-09 13h06.48.963793 -0600,
194,E,0,None,193,193,0,None,1,,,0,193,193,193,536.1185796000063,,,,,,,,,,,536.1049286000198,536.1185796000063,536.1185796000063,536.3017059999984,536.318271199998,538.1040816000022,None,1,,,,000011,001,2024-10-09_13h02.57.397,cpt_test,2024.2.2,59.963434298561936,2024-10-09 13h06.48.963793 -0600,
195,X,1,x,194,194,0,x,1,0.49405740000656806,0.18352809999487363,0,194,194,194,538.1171949999989,,,,,,,,,,,538.1043015000178,538.1171949999989,538.1171949999989,538.3003573000024,538.3165071000112,540.1171565999975,x,1,0.49405740000656806,0.18352809999487363,540.1147999000095,000011,001,2024-10-09_13h02.57.397,cpt_test,2024.2.2,59.963434298561936,2024-10-09 13h06.48.963793 -0600,
196,X,1,x,195,195,0,x,1,0.5561659999948461,0.1875995000009425,0,195,195,195,540.1318784000177,,,,,,,,,,,540.1173028000048,540.1318784000177,540.1318784000177,540.31470670001,540.3313114000193,542.1157744000084,x,1,0.5561659999948461,0.1875995000009425,542.113079200004,000011,001,2024-10-09_13h02.57.397,cpt_test,2024.2.2,59.963434298561936,2024-10-09 13h06.48.963793 -0600,
197,O,0,None,196,196,0,None,1,,,0,196,196,196,542.1304827000131,,,,,,,,,,,542.1159321000159,542.1304827000131,542.1304827000131,542.3138959000062,542.32993420001,544.1162289000058,None,1,,,,000011,001,2024-10-09_13h02.57.397,cpt_test,2024.2.2,59.963434298561936,2024-10-09 13h06.48.963793 -0600,
198,X,1,x,197,197,0,x,1,0.37134149999474175,0.16022809999412857,0,197,197,197,544.1289145000046,,,,,,,,,,,544.1164683999959,544.1289145000046,544.1289145000046,544.3127984000021,544.3284385000006,546.113805800007,x,1,0.37134149999474175,0.16022809999412857,,000011,001,2024-10-09_13h02.57.397,cpt_test,2024.2.2,59.963434298561936,2024-10-09 13h06.48.963793 -0600,
199,T,0,None,198,198,0,None,1,,,0,198,198,198,546.1273688000219,,,,,,,,,,,546.114023400005,546.1273688000219,546.1273688000219,546.3104653000191,546.326876200008,548.1118694000179,None,1,,,,000011,001,2024-10-09_13h02.57.397,cpt_test,2024.2.2,59.963434298561936,2024-10-09 13h06.48.963793 -0600,
200,X,1,x,199,199,0,x,1,0.38728500000433996,0.15571379999164492,0,199,199,199,548.1256243000098,,,,,,,,,,,548.1120900000096,548.1256243000098,548.1256243000098,548.3086345000193,548.3251686000149,550.1098494000034,x,1,0.38728500000433996,0.15571379999164492,,000011,001,2024-10-09_13h02.57.397,cpt_test,2024.2.2,59.963434298561936,2024-10-09 13h06.48.963793 -0600,
201,L,0,None,200,200,0,None,1,,,0,200,200,200,550.1239989000023,,,,,,,,,,,550.1100041000172,550.1239989000023,550.1239989000023,550.3070509000099,550.3235953999974,552.1076559000066,None,1,,,,000011,001,2024-10-09_13h02.57.397,cpt_test,2024.2.2,59.963434298561936,2024-10-09 13h06.48.963793 -0600,
