Number,letra,target,correctas,thisN,thisTrialN,thisRepN,respuesta.keys,respuesta.corr,respuesta.rt,respuesta.duration,trials.thisRepN,trials.thisTrialN,trials.thisN,trials.thisIndex,thisRow.t,notes,Ojos_abiertos.started,Abiertos.started,Ojos_abiertos.stopped,Ojos_cerrados.started,Cerrados.started,alert.started,Cerrados.stopped,alert.stopped,Ojos_cerrados.stopped,Test.started,prueba.started,respuesta.started,text.started,prueba.stopped,Test.stopped,trials.respuesta.keys,trials.respuesta.corr,trials.respuesta.rt,trials.respuesta.duration,text.stopped,participant,session,date,expName,psychopyVersion,frameRate,expStart,
,,,,,,,,,,,,,,,,,0.013101399992592633,0.02141709999705199,90.00219159999688,,,,,,,,,,,,,,,,,,000005,001,2024-10-08_13h31.12.325,cpt_test,2024.2.2,60.099259934404294,2024-10-08 13h31.38.734426 -0600,
,,,,,,,,,,,,,,,,,,,,90.00407290000294,90.01448410000012,150.0006577666684,150.01722439999867,150.31988880000426,150.10165559999587,,,,,,,,,,,,000005,001,2024-10-08_13h31.12.325,cpt_test,2024.2.2,60.099259934404294,2024-10-08 13h31.38.734426 -0600,
1,A,0,None,0,0,0,None,1,,,0,0,0,0,150.31988880000426,,,,,,,,,,,150.1343421000056,150.31988880000426,150.31988880000426,150.3367314999923,150.53352620000078,152.10574719999568,None,1,,,,000005,001,2024-10-08_13h31.12.325,cpt_test,2024.2.2,60.099259934404294,2024-10-08 13h31.38.734426 -0600,
2,R,0,None,1,1,0,None,1,,,0,1,1,1,152.1342020000011,,,,,,,,,,,152.10617759999877,152.1342020000011,152.1342020000011,152.31561449999572,152.34862409999187,154.1027519999916,None,1,,,,000005,001,2024-10-08_13h31.12.325,cpt_test,2024.2.2,60.099259934404294,2024-10-08 13h31.38.734426 -0600,
3,L,0,None,2,2,0,None,1,,,0,2,2,2,154.12904549999803,,,,,,,,,,,154.10306700000365,154.12904549999803,154.12904549999803,154.313957499995,154.33029309999256,156.1181116999942,None,1,,,,000005,001,2024-10-08_13h31.12.325,cpt_test,2024.2.2,60.099259934404294,2024-10-08 13h31.38.734426 -0600,
4,X,1,x,3,3,0,x,1,0.3876419000007445,0.1773986999905901,0,3,3,3,156.1467777999933,,,,,,,,,,,156.11844599999313,156.1467777999933,156.1467777999933,156.31204299999808,156.3619413999986,158.1159015000012,x,1,0.3876419000007445,0.1773986999905901,,000005,001,2024-10-08_13h31.12.325,cpt_test,2024.2.2,60.099259934404294,2024-10-08 13h31.38.734426 -0600,
5,O,0,None,4,4,0,None,1,,,0,4,4,4,158.1450693999941,,,,,,,,,,,158.11623430000327,158.1450693999941,158.1450693999941,158.31180729999323,158.36033870000392,160.11503449999145,None,1,,,,000005,001,2024-10-08_13h31.12.325,cpt_test,2024.2.2,60.099259934404294,2024-10-08 13h31.38.734426 -0600,
6,G,0,None,5,5,0,None,1,,,0,5,5,5,160.1424124000041,,,,,,,,,,,160.11536429999978,160.1424124000041,160.1424124000041,160.3090164000023,160.34177400000044,162.1131716999953,None,1,,,,000005,001,2024-10-08_13h31.12.325,cpt_test,2024.2.2,60.099259934404294,2024-10-08 13h31.38.734426 -0600,
7,P,0,None,6,6,0,None,1,,,0,6,6,6,162.1365289999958,,,,,,,,,,,162.11350110000058,162.1365289999958,162.1365289999958,162.30740279999736,162.34033500000078,164.111419199995,None,1,,,,000005,001,2024-10-08_13h31.12.325,cpt_test,2024.2.2,60.099259934404294,2024-10-08 13h31.38.734426 -0600,
8,X,1,x,7,7,0,x,1,0.31062950000341516,0.15932740000425838,0,7,7,7,164.1239573000057,,,,,,,,,,,164.11173970000527,164.1239573000057,164.1239573000057,164.30571519999648,164.33849910000572,166.10946910000348,x,1,0.31062950000341516,0.15932740000425838,,000005,001,2024-10-08_13h31.12.325,cpt_test,2024.2.2,60.099259934404294,2024-10-08 13h31.38.734426 -0600,
9,X,1,x,8,8,0,x,1,0.33357110001088586,0.16831909999018535,0,8,8,8,166.12068749999162,,,,,,,,,,,166.10980589999235,166.12068749999162,166.12068749999162,166.30402959999628,166.32020770000236,168.10815909999656,x,1,0.33357110001088586,0.16831909999018535,,000005,001,2024-10-08_13h31.12.325,cpt_test,2024.2.2,60.099259934404294,2024-10-08 13h31.38.734426 -0600,
10,Z,0,None,9,9,0,None,1,,,0,9,9,9,168.13620199999423,,,,,,,,,,,168.10851079999702,168.13620199999423,168.13620199999423,168.30238009999448,168.33535349999147,170.1065671999968,None,1,,,,000005,001,2024-10-08_13h31.12.325,cpt_test,2024.2.2,60.099259934404294,2024-10-08 13h31.38.734426 -0600,
11,I,0,None,10,10,0,None,1,,,0,10,10,10,170.13468039999134,,,,,,,,,,,170.10690309999336,170.13468039999134,170.13468039999134,170.30041589999746,170.33379530000093,172.10509149999416,None,1,,,,000005,001,2024-10-08_13h31.12.325,cpt_test,2024.2.2,60.099259934404294,2024-10-08 13h31.38.734426 -0600,
12,D,0,None,11,11,0,None,1,,,0,11,11,11,172.13536329999624,,,,,,,,,,,172.10543529999268,172.13536329999624,172.13536329999624,172.31563769999775,172.3487765000027,174.10341979999794,None,1,,,,000005,001,2024-10-08_13h31.12.325,cpt_test,2024.2.2,60.099259934404294,2024-10-08 13h31.38.734426 -0600,
13,X,1,x,12,12,0,x,1,0.3346820000006119,0.16369570000097156,0,12,12,12,174.1160693999991,,,,,,,,,,,174.10377780000272,174.1160693999991,174.1160693999991,174.3141142999957,174.33034279999265,176.1016454000055,x,1,0.3346820000006119,0.16369570000097156,,000005,001,2024-10-08_13h31.12.325,cpt_test,2024.2.2,60.099259934404294,2024-10-08 13h31.38.734426 -0600,
14,Y,0,None,13,13,0,None,1,,,0,13,13,13,176.13143589999527,,,,,,,,,,,176.10199890000513,176.13143589999527,176.13143589999527,176.31233559999964,176.34554339999158,178.11644080000406,None,1,,,,000005,001,2024-10-08_13h31.12.325,cpt_test,2024.2.2,60.099259934404294,2024-10-08 13h31.38.734426 -0600,
15,X,1,x,14,14,0,x,1,0.46638939999684226,0.17253889999119565,0,14,14,14,178.12959919999412,,,,,,,,,,,178.1167698999925,178.12959919999412,178.12959919999412,178.31148499999836,178.34527760000492,180.11517390000517,x,1,0.46638939999684226,0.17253889999119565,,000005,001,2024-10-08_13h31.12.325,cpt_test,2024.2.2,60.099259934404294,2024-10-08 13h31.38.734426 -0600,
16,X,1,x,15,15,0,x,1,0.364392699993914,0.20381220000854228,0,15,15,15,180.12584849999985,,,,,,,,,,,180.1155207999982,180.12584849999985,180.12584849999985,180.30917350000527,180.325362699994,182.11305669999274,x,1,0.364392699993914,0.20381220000854228,,000005,001,2024-10-08_13h31.12.325,cpt_test,2024.2.2,60.099259934404294,2024-10-08 13h31.38.734426 -0600,
17,A,0,None,16,16,0,None,1,,,0,16,16,16,182.1257454000006,,,,,,,,,,,182.11338470000192,182.1257454000006,182.1257454000006,182.30740920000244,182.34039579999808,184.11349509999854,None,1,,,,000005,001,2024-10-08_13h31.12.325,cpt_test,2024.2.2,60.099259934404294,2024-10-08 13h31.38.734426 -0600,
18,J,0,None,17,17,0,None,1,,,0,17,17,17,184.1423441999941,,,,,,,,,,,184.1139097999985,184.1423441999941,184.1423441999941,184.3058355999965,184.35560749999422,186.10992180000176,None,1,,,,000005,001,2024-10-08_13h31.12.325,cpt_test,2024.2.2,60.099259934404294,2024-10-08 13h31.38.734426 -0600,
19,G,0,None,18,18,0,None,1,,,0,18,18,18,186.1226248000021,,,,,,,,,,,186.11025650000374,186.1226248000021,186.1226248000021,186.30431999999564,186.33729690000473,188.10941789999197,None,1,,,,000005,001,2024-10-08_13h31.12.325,cpt_test,2024.2.2,60.099259934404294,2024-10-08 13h31.38.734426 -0600,
20,X,1,x,19,19,0,x,1,0.37974129999929573,0.16259739999077283,0,19,19,19,188.1233568000025,,,,,,,,,,,188.10982070000318,188.1233568000025,188.1233568000025,188.31156839999312,188.3281658999913,190.10696010000538,x,1,0.37974129999929573,0.16259739999077283,,000005,001,2024-10-08_13h31.12.325,cpt_test,2024.2.2,60.099259934404294,2024-10-08 13h31.38.734426 -0600,
21,T,0,None,20,20,0,None,1,,,0,20,20,20,190.13546089999727,,,,,,,,,,,190.1073255999945,190.13546089999727,190.13546089999727,190.3007615999959,190.35044419999758,192.10515459999442,None,1,,,,000005,001,2024-10-08_13h31.12.325,cpt_test,2024.2.2,60.099259934404294,2024-10-08 13h31.38.734426 -0600,
22,S,0,None,21,21,0,None,1,,,0,21,21,21,192.13693429999694,,,,,,,,,,,192.10546690000047,192.13693429999694,192.13693429999694,192.2990953999979,192.34884229999443,194.10334169999987,None,1,,,,000005,001,2024-10-08_13h31.12.325,cpt_test,2024.2.2,60.099259934404294,2024-10-08 13h31.38.734426 -0600,
23,X,1,x,22,22,0,x,1,0.3180780999973649,0.18677659999229945,0,22,22,22,194.11664009999367,,,,,,,,,,,194.1036657999939,194.11664009999367,194.11664009999367,194.31427299999632,194.33043349999934,196.10149749999982,x,1,0.3180780999973649,0.18677659999229945,,000005,001,2024-10-08_13h31.12.325,cpt_test,2024.2.2,60.099259934404294,2024-10-08 13h31.38.734426 -0600,
24,S,0,None,23,23,0,None,1,,,0,23,23,23,196.1143308000028,,,,,,,,,,,196.10182409999834,196.1143308000028,196.1143308000028,196.31263190000027,196.32905570000003,198.11697269999422,None,1,,,,000005,001,2024-10-08_13h31.12.325,cpt_test,2024.2.2,60.099259934404294,2024-10-08 13h31.38.734426 -0600,
25,G,0,None,24,24,0,None,1,,,0,24,24,24,198.129783700002,,,,,,,,,,,198.11739859999216,198.129783700002,198.129783700002,198.31110379999154,198.34398770000553,200.11547409999184,None,1,,,,000005,001,2024-10-08_13h31.12.325,cpt_test,2024.2.2,60.099259934404294,2024-10-08 13h31.38.734426 -0600,
26,O,0,None,25,25,0,None,1,,,0,25,25,25,200.1288729999942,,,,,,,,,,,200.11586389999138,200.1288729999942,200.1288729999942,200.30963010000414,200.34208810000564,202.1152998000034,None,1,,,,000005,001,2024-10-08_13h31.12.325,cpt_test,2024.2.2,60.099259934404294,2024-10-08 13h31.38.734426 -0600,
27,P,0,None,26,26,0,None,1,,,0,26,26,26,202.12955270000384,,,,,,,,,,,202.11572099999466,202.12955270000384,202.12955270000384,202.31588809999812,202.3280947000021,204.11200929999177,None,1,,,,000005,001,2024-10-08_13h31.12.325,cpt_test,2024.2.2,60.099259934404294,2024-10-08 13h31.38.734426 -0600,
28,Z,0,None,27,27,0,None,1,,,0,27,27,27,204.12477029999718,,,,,,,,,,,204.1123774000007,204.12477029999718,204.12477029999718,204.30603540000448,204.339089400004,206.10966980000376,None,1,,,,000005,001,2024-10-08_13h31.12.325,cpt_test,2024.2.2,60.099259934404294,2024-10-08 13h31.38.734426 -0600,
29,X,1,x,28,28,0,x,1,0.3041787999973167,0.22343779999937396,0,28,28,28,206.12134319999313,,,,,,,,,,,206.1098595999938,206.12134319999313,206.12134319999313,206.30500269999902,206.32156949999626,208.11056119999557,x,1,0.3041787999973167,0.22343779999937396,,000005,001,2024-10-08_13h31.12.325,cpt_test,2024.2.2,60.099259934404294,2024-10-08 13h31.38.734426 -0600,
30,I,0,None,29,29,0,None,1,,,0,29,29,29,208.1247888999933,,,,,,,,,,,208.11097949999385,208.1247888999933,208.1247888999933,208.3116735999938,208.32850970000436,210.10667280000052,None,1,,,,000005,001,2024-10-08_13h31.12.325,cpt_test,2024.2.2,60.099259934404294,2024-10-08 13h31.38.734426 -0600,
31,F,0,None,30,30,0,None,1,,,0,30,30,30,210.13580950000323,,,,,,,,,,,210.10700150000048,210.13580950000323,210.13580950000323,210.30095479999727,210.35064720000082,212.1051809000055,None,1,,,,000005,001,2024-10-08_13h31.12.325,cpt_test,2024.2.2,60.099259934404294,2024-10-08 13h31.38.734426 -0600,
32,M,0,None,31,31,0,None,1,,,0,31,31,31,212.13545980000345,,,,,,,,,,,212.10550809999404,212.13545980000345,212.13545980000345,212.3160945999989,212.3490227000002,214.10360699999728,None,1,,,,000005,001,2024-10-08_13h31.12.325,cpt_test,2024.2.2,60.099259934404294,2024-10-08 13h31.38.734426 -0600,
33,T,0,None,32,32,0,None,1,,,0,32,32,32,214.11676429999352,,,,,,,,,,,214.10395940000308,214.11676429999352,214.11676429999352,214.31459090000135,214.33070269999735,216.102083699996,None,1,,,,000005,001,2024-10-08_13h31.12.325,cpt_test,2024.2.2,60.099259934404294,2024-10-08 13h31.38.734426 -0600,
34,A,0,None,33,33,0,None,1,,,0,33,33,33,216.11481939999794,,,,,,,,,,,216.10242100000323,216.11481939999794,216.11481939999794,216.31270419999782,216.32927069999278,218.11690269999963,None,1,,,,000005,001,2024-10-08_13h31.12.325,cpt_test,2024.2.2,60.099259934404294,2024-10-08 13h31.38.734426 -0600,
35,E,0,None,34,34,0,None,1,,,0,34,34,34,218.14605470000242,,,,,,,,,,,218.11723439999332,218.14605470000242,218.14605470000242,218.31261959999392,218.34389419999206,220.1153823999921,None,1,,,,000005,001,2024-10-08_13h31.12.325,cpt_test,2024.2.2,60.099259934404294,2024-10-08 13h31.38.734426 -0600,
36,X,1,x,35,35,0,x,1,0.3644865999958711,0.2202821000100812,0,35,35,35,220.12797309999587,,,,,,,,,,,220.11570239999855,220.12797309999587,220.12797309999587,220.3092900000047,220.34234339999966,222.1160888000013,x,1,0.3644865999958711,0.2202821000100812,222.10895969999547,000005,001,2024-10-08_13h31.12.325,cpt_test,2024.2.2,60.099259934404294,2024-10-08 13h31.38.734426 -0600,
37,A,0,None,36,36,0,None,1,,,0,36,36,36,222.13011109999206,,,,,,,,,,,222.11649279999256,222.13011109999206,222.13011109999206,222.3164717000036,222.33330980000028,224.1119794999977,None,1,,,,000005,001,2024-10-08_13h31.12.325,cpt_test,2024.2.2,60.099259934404294,2024-10-08 13h31.38.734426 -0600,
38,S,0,None,37,37,0,None,1,,,0,37,37,37,224.1248176999943,,,,,,,,,,,224.11232489999384,224.1248176999943,224.1248176999943,224.3061200999946,224.33910579999792,226.10991669999203,None,1,,,,000005,001,2024-10-08_13h31.12.325,cpt_test,2024.2.2,60.099259934404294,2024-10-08 13h31.38.734426 -0600,
39,U,0,None,38,38,0,None,1,,,0,38,38,38,226.14106049999828,,,,,,,,,,,226.11023819999536,226.14106049999828,226.14106049999828,226.30449660000158,226.3541816999932,228.10888509999495,None,1,,,,000005,001,2024-10-08_13h31.12.325,cpt_test,2024.2.2,60.099259934404294,2024-10-08 13h31.38.734426 -0600,
40,U,0,None,39,39,0,None,1,,,0,39,39,39,228.11988270000438,,,,,,,,,,,228.10921139999118,228.11988270000438,228.11988270000438,228.30327319999924,228.31919449999987,230.10653239999374,None,1,,,,000005,001,2024-10-08_13h31.12.325,cpt_test,2024.2.2,60.099259934404294,2024-10-08 13h31.38.734426 -0600,
41,Q,0,None,40,40,0,None,1,,,0,40,40,40,230.13668310000503,,,,,,,,,,,230.10684310000215,230.13668310000503,230.13668310000503,230.30136919999495,230.35103190000518,232.1054654000036,None,1,,,,000005,001,2024-10-08_13h31.12.325,cpt_test,2024.2.2,60.099259934404294,2024-10-08 13h31.38.734426 -0600,
42,E,0,None,41,41,0,None,1,,,0,41,41,41,232.1179870999913,,,,,,,,,,,232.10577589999593,232.1179870999913,232.1179870999913,232.3163429999986,232.3326015999919,234.1038062000007,None,1,,,,000005,001,2024-10-08_13h31.12.325,cpt_test,2024.2.2,60.099259934404294,2024-10-08 13h31.38.734426 -0600,
43,B,0,None,42,42,0,None,1,,,0,42,42,42,234.13425400000415,,,,,,,,,,,234.10412570000335,234.13425400000415,234.13425400000415,234.3146887000039,234.34764670000004,236.1034631999937,None,1,,,,000005,001,2024-10-08_13h31.12.325,cpt_test,2024.2.2,60.099259934404294,2024-10-08 13h31.38.734426 -0600,
44,O,0,None,43,43,0,None,1,,,0,43,43,43,236.11761509999633,,,,,,,,,,,236.10388039999816,236.11761509999633,236.11761509999633,236.31313290000253,236.32932849999634,238.1169763999933,None,1,,,,000005,001,2024-10-08_13h31.12.325,cpt_test,2024.2.2,60.099259934404294,2024-10-08 13h31.38.734426 -0600,
45,E,0,None,44,44,0,None,1,,,0,44,44,44,238.12938779999968,,,,,,,,,,,238.11729029999697,238.12938779999968,238.12938779999968,238.31136959999276,238.34425219999684,240.11554099999194,None,1,,,,000005,001,2024-10-08_13h31.12.325,cpt_test,2024.2.2,60.099259934404294,2024-10-08 13h31.38.734426 -0600,
46,F,0,None,45,45,0,None,1,,,0,45,45,45,240.1282082999969,,,,,,,,,,,240.11585459999333,240.1282082999969,240.1282082999969,240.31056949999765,240.3270390999969,242.1139409000025,None,1,,,,000005,001,2024-10-08_13h31.12.325,cpt_test,2024.2.2,60.099259934404294,2024-10-08 13h31.38.734426 -0600,
47,V,0,None,46,46,0,None,1,,,0,46,46,46,242.14289269999426,,,,,,,,,,,242.11427489999915,242.14289269999426,242.14289269999426,242.30794349999633,242.35777410000446,244.11227959999815,None,1,,,,000005,001,2024-10-08_13h31.12.325,cpt_test,2024.2.2,60.099259934404294,2024-10-08 13h31.38.734426 -0600,
48,X,1,x,47,47,0,x,1,0.34088589999009855,0.22812320000957698,0,47,47,47,244.12512709999282,,,,,,,,,,,244.1126127000025,244.12512709999282,244.12512709999282,244.30635970000003,244.33948310000414,246.11049859999912,x,1,0.34088589999009855,0.22812320000957698,,000005,001,2024-10-08_13h31.12.325,cpt_test,2024.2.2,60.099259934404294,2024-10-08 13h31.38.734426 -0600,
49,X,1,x,48,48,0,x,1,0.42211839999072254,0.2515354000061052,0,48,48,48,246.12145589999272,,,,,,,,,,,246.11082069999247,246.12145589999272,246.12145589999272,246.30463499999314,246.32099839999864,248.10899710000376,x,1,0.42211839999072254,0.2515354000061052,,000005,001,2024-10-08_13h31.12.325,cpt_test,2024.2.2,60.099259934404294,2024-10-08 13h31.38.734426 -0600,
50,C,0,None,49,49,0,None,1,,,0,49,49,49,248.13997639999434,,,,,,,,,,,248.10935590000008,248.13997639999434,248.13997639999434,248.3035663000046,248.3526802999986,250.10727359999146,None,1,,,,000005,001,2024-10-08_13h31.12.325,cpt_test,2024.2.2,60.099259934404294,2024-10-08 13h31.38.734426 -0600,
51,M,0,None,50,50,0,None,1,,,0,50,50,50,250.11998410000524,,,,,,,,,,,250.10760790000495,250.11998410000524,250.11998410000524,250.30142570000316,250.3345602000045,252.10537979999208,None,1,,,,000005,001,2024-10-08_13h31.12.325,cpt_test,2024.2.2,60.099259934404294,2024-10-08 13h31.38.734426 -0600,
52,D,0,None,51,51,0,None,1,,,0,51,51,51,252.118161099992,,,,,,,,,,,252.10569209999812,252.118161099992,252.118161099992,252.31648680000217,252.33289530000184,254.10390709999774,None,1,,,,000005,001,2024-10-08_13h31.12.325,cpt_test,2024.2.2,60.099259934404294,2024-10-08 13h31.38.734426 -0600,
53,X,1,x,52,52,0,x,1,0.3638197999971453,0.20923609999590553,0,52,52,52,254.11649210000178,,,,,,,,,,,254.10421560000395,254.11649210000178,254.11649210000178,254.31486319999385,254.33103859999392,256.1018849999964,x,1,0.3638197999971453,0.20923609999590553,,000005,001,2024-10-08_13h31.12.325,cpt_test,2024.2.2,60.099259934404294,2024-10-08 13h31.38.734426 -0600,
54,K,0,None,53,53,0,None,1,,,0,53,53,53,256.1236554999923,,,,,,,,,,,256.10209400000167,256.1236554999923,256.1236554999923,256.31310210000083,256.32955769999535,258.117241999993,None,1,,,,000005,001,2024-10-08_13h31.12.325,cpt_test,2024.2.2,60.099259934404294,2024-10-08 13h31.38.734426 -0600,
55,X,1,x,54,54,0,x,1,0.369991100000334,0.192223300007754,0,54,54,54,258.1302769000031,,,,,,,,,,,258.117571099996,258.1302769000031,258.1302769000031,258.3113532999996,258.34456800000044,260.11527419999766,x,1,0.369991100000334,0.192223300007754,,000005,001,2024-10-08_13h31.12.325,cpt_test,2024.2.2,60.099259934404294,2024-10-08 13h31.38.734426 -0600,
56,N,0,None,55,55,0,None,1,,,0,55,55,55,260.1448306999955,,,,,,,,,,,260.11559719999786,260.1448306999955,260.1448306999955,260.31020939999144,260.359629700004,262.1139475999953,None,1,,,,000005,001,2024-10-08_13h31.12.325,cpt_test,2024.2.2,60.099259934404294,2024-10-08 13h31.38.734426 -0600,
57,M,0,None,56,56,0,None,1,,,0,56,56,56,262.1266536000039,,,,,,,,,,,262.1142580000014,262.1266536000039,262.1266536000039,262.30832470000314,262.34108209999977,264.1123888000002,None,1,,,,000005,001,2024-10-08_13h31.12.325,cpt_test,2024.2.2,60.099259934404294,2024-10-08 13h31.38.734426 -0600,
58,X,1,x,57,57,0,x,1,0.30487219999486115,0.20940669999981765,0,57,57,57,264.12495139999373,,,,,,,,,,,264.1127012999932,264.12495139999373,264.12495139999373,264.306668899997,264.33961549999367,266.1105613999971,x,1,0.30487219999486115,0.20940669999981765,,000005,001,2024-10-08_13h31.12.325,cpt_test,2024.2.2,60.099259934404294,2024-10-08 13h31.38.734426 -0600,
59,F,0,None,58,58,0,None,1,,,0,58,58,58,266.12336119999236,,,,,,,,,,,266.1108841999958,266.12336119999236,266.12336119999236,266.3048807000014,266.33793629999855,268.10898669999733,None,1,,,,000005,001,2024-10-08_13h31.12.325,cpt_test,2024.2.2,60.099259934404294,2024-10-08 13h31.38.734426 -0600,
60,A,0,None,59,59,0,None,1,,,0,59,59,59,268.12148570000136,,,,,,,,,,,268.10929389999365,268.12148570000136,268.12148570000136,268.3033373999933,268.33617830000003,270.10874379999586,None,1,,,,000005,001,2024-10-08_13h31.12.325,cpt_test,2024.2.2,60.099259934404294,2024-10-08 13h31.38.734426 -0600,
61,X,1,x,60,60,0,x,1,0.33185829999274574,0.190639899999951,0,60,60,60,270.1229910999973,,,,,,,,,,,270.1091439000011,270.1229910999973,270.1229910999973,270.3105729999952,270.327174799997,272.1058058000053,x,1,0.33185829999274574,0.190639899999951,,000005,001,2024-10-08_13h31.12.325,cpt_test,2024.2.2,60.099259934404294,2024-10-08 13h31.38.734426 -0600,
62,V,0,None,61,61,0,None,1,,,0,61,61,61,272.1185633999994,,,,,,,,,,,272.10614439999335,272.1185633999994,272.1185633999994,272.3167942,272.33283149999625,274.1036871999968,None,1,,,,000005,001,2024-10-08_13h31.12.325,cpt_test,2024.2.2,60.099259934404294,2024-10-08 13h31.38.734426 -0600,
63,U,0,None,62,62,0,None,1,,,0,62,62,62,274.1169163000013,,,,,,,,,,,274.10400039999513,274.1169163000013,274.1169163000013,274.3151066999999,274.33141169999726,276.10222950000025,None,1,,,,000005,001,2024-10-08_13h31.12.325,cpt_test,2024.2.2,60.099259934404294,2024-10-08 13h31.38.734426 -0600,
64,M,0,None,63,63,0,None,1,,,0,63,63,63,276.1148894999933,,,,,,,,,,,276.10256479999225,276.1148894999933,276.1148894999933,276.3132869999972,276.32971890000044,278.1172127000027,None,1,,,,000005,001,2024-10-08_13h31.12.325,cpt_test,2024.2.2,60.099259934404294,2024-10-08 13h31.38.734426 -0600,
65,X,1,x,64,64,0,x,1,0.31885029999830294,0.24307969999790657,0,64,64,64,278.13012639999215,,,,,,,,,,,278.1175169000053,278.13012639999215,278.13012639999215,278.3116432999959,278.3446697000036,280.11588699999265,x,1,0.31885029999830294,0.24307969999790657,,000005,001,2024-10-08_13h31.12.325,cpt_test,2024.2.2,60.099259934404294,2024-10-08 13h31.38.734426 -0600,
66,A,0,None,65,65,0,None,1,,,0,65,65,65,280.1287767000031,,,,,,,,,,,280.11620580000454,280.1287767000031,280.1287767000031,280.3101731999923,280.34297369999695,282.1139284999954,None,1,,,,000005,001,2024-10-08_13h31.12.325,cpt_test,2024.2.2,60.099259934404294,2024-10-08 13h31.38.734426 -0600,
67,N,0,None,66,66,0,None,1,,,0,66,66,66,282.12690360000124,,,,,,,,,,,282.1142342999956,282.12690360000124,282.12690360000124,282.30847049999284,282.34131859999616,284.1120876999921,None,1,,,,000005,001,2024-10-08_13h31.12.325,cpt_test,2024.2.2,60.099259934404294,2024-10-08 13h31.38.734426 -0600,
68,H,0,None,67,67,0,None,1,,,0,67,67,67,284.13686620000226,,,,,,,,,,,284.1124159000028,284.13686620000226,284.13686620000226,284.3066368,284.3398903000052,286.1108424999984,None,1,,,,000005,001,2024-10-08_13h31.12.325,cpt_test,2024.2.2,60.099259934404294,2024-10-08 13h31.38.734426 -0600,
69,A,0,None,68,68,0,None,1,,,0,68,68,68,286.12399029999506,,,,,,,,,,,286.1111646999925,286.12399029999506,286.12399029999506,286.30496870000206,286.3382242999942,288.10886730000493,None,1,,,,000005,001,2024-10-08_13h31.12.325,cpt_test,2024.2.2,60.099259934404294,2024-10-08 13h31.38.734426 -0600,
70,X,1,x,69,69,0,x,1,0.2904828000027919,0.21114980000129435,0,69,69,69,288.1218188999919,,,,,,,,,,,288.10918479999236,288.1218188999919,288.1218188999919,288.30344210000476,288.3364045000053,290.10775300000387,x,1,0.2904828000027919,0.21114980000129435,,000005,001,2024-10-08_13h31.12.325,cpt_test,2024.2.2,60.099259934404294,2024-10-08 13h31.38.734426 -0600,
71,F,0,None,70,70,0,None,1,,,0,70,70,70,290.12068619999627,,,,,,,,,,,290.10810139999376,290.12068619999627,290.12068619999627,290.302363099996,290.3363083000004,292.106045499997,None,1,,,,000005,001,2024-10-08_13h31.12.325,cpt_test,2024.2.2,60.099259934404294,2024-10-08 13h31.38.734426 -0600,
72,N,0,None,71,71,0,None,1,,,0,71,71,71,292.1190234999958,,,,,,,,,,,292.10636689999956,292.1190234999958,292.1190234999958,292.3002781999967,292.3332340999914,294.10522830000264,None,1,,,,000005,001,2024-10-08_13h31.12.325,cpt_test,2024.2.2,60.099259934404294,2024-10-08 13h31.38.734426 -0600,
73,K,0,None,72,72,0,None,1,,,0,72,72,72,294.1191980000003,,,,,,,,,,,294.10562729999947,294.1191980000003,294.1191980000003,294.3152049999917,294.33141099999193,296.1025185000035,None,1,,,,000005,001,2024-10-08_13h31.12.325,cpt_test,2024.2.2,60.099259934404294,2024-10-08 13h31.38.734426 -0600,
74,Y,0,None,73,73,0,None,1,,,0,73,73,73,296.1150459999917,,,,,,,,,,,296.10283259999414,296.1150459999917,296.1150459999917,296.32330819999333,296.32330819999333,298.10438829999475,None,1,,,,000005,001,2024-10-08_13h31.12.325,cpt_test,2024.2.2,60.099259934404294,2024-10-08 13h31.38.734426 -0600,
75,Y,0,None,74,74,0,None,1,,,0,74,74,74,298.11367969999264,,,,,,,,,,,298.1047361999954,298.11367969999264,298.11367969999264,298.3118790000008,298.32813019999594,300.11616619999404,None,1,,,,000005,001,2024-10-08_13h31.12.325,cpt_test,2024.2.2,60.099259934404294,2024-10-08 13h31.38.734426 -0600,
76,R,0,None,75,75,0,None,1,,,0,75,75,75,300.12910479999846,,,,,,,,,,,300.1165003999922,300.12910479999846,300.12910479999846,300.310318799995,300.3433179999993,302.11426990000473,None,1,,,,000005,001,2024-10-08_13h31.12.325,cpt_test,2024.2.2,60.099259934404294,2024-10-08 13h31.38.734426 -0600,
77,X,1,x,76,76,0,x,1,0.38038159999996424,0.1852179999987129,0,76,76,76,302.12727959999756,,,,,,,,,,,302.1145955999964,302.12727959999756,302.12727959999756,302.3086522999947,302.34251669999503,304.11367540000356,x,1,0.38038159999996424,0.1852179999987129,,000005,001,2024-10-08_13h31.12.325,cpt_test,2024.2.2,60.099259934404294,2024-10-08 13h31.38.734426 -0600,
78,R,0,None,77,77,0,None,1,,,0,77,77,77,304.1281100000051,,,,,,,,,,,304.11408869999286,304.1281100000051,304.1281100000051,304.30690919999324,304.3400537999987,306.1106973999995,None,1,,,,000005,001,2024-10-08_13h31.12.325,cpt_test,2024.2.2,60.099259934404294,2024-10-08 13h31.38.734426 -0600,
79,F,0,None,78,78,0,None,1,,,0,78,78,78,306.1236084999982,,,,,,,,,,,306.11100360000273,306.1236084999982,306.1236084999982,306.30526959999406,306.3384408999991,308.1095941999956,None,1,,,,000005,001,2024-10-08_13h31.12.325,cpt_test,2024.2.2,60.099259934404294,2024-10-08 13h31.38.734426 -0600,
80,K,0,None,79,79,0,None,1,,,0,79,79,79,308.12272929999745,,,,,,,,,,,308.10992980000447,308.12272929999745,308.12272929999745,308.30376320000505,308.3368579999951,310.1075402999995,None,1,,,,000005,001,2024-10-08_13h31.12.325,cpt_test,2024.2.2,60.099259934404294,2024-10-08 13h31.38.734426 -0600,
81,O,0,None,80,80,0,None,1,,,0,80,80,80,310.119995400004,,,,,,,,,,,310.1078259999922,310.119995400004,310.119995400004,310.30210069999157,310.3350534999918,312.1060662999953,None,1,,,,000005,001,2024-10-08_13h31.12.325,cpt_test,2024.2.2,60.099259934404294,2024-10-08 13h31.38.734426 -0600,
82,F,0,None,81,81,0,None,1,,,0,81,81,81,312.1186358999985,,,,,,,,,,,312.1063761999976,312.1186358999985,312.1186358999985,312.3003880000033,312.3332936999941,314.104757299996,None,1,,,,000005,001,2024-10-08_13h31.12.325,cpt_test,2024.2.2,60.099259934404294,2024-10-08 13h31.38.734426 -0600,
83,F,0,None,82,82,0,None,1,,,0,82,82,82,314.1155226999981,,,,,,,,,,,314.10509589999856,314.1155226999981,314.1155226999981,314.3161581000022,314.3161581000022,316.10289799999737,None,1,,,,000005,001,2024-10-08_13h31.12.325,cpt_test,2024.2.2,60.099259934404294,2024-10-08 13h31.38.734426 -0600,
84,W,0,None,83,83,0,None,1,,,0,83,83,83,316.13469550000445,,,,,,,,,,,316.103214799994,316.13469550000445,316.13469550000445,316.3136857999925,316.34696120000444,318.1175693999976,None,1,,,,000005,001,2024-10-08_13h31.12.325,cpt_test,2024.2.2,60.099259934404294,2024-10-08 13h31.38.734426 -0600,
85,X,1,x,84,84,0,x,1,0.37461139999504667,0.2002228999917861,0,84,84,84,318.1305960000027,,,,,,,,,,,318.11787729999924,318.1305960000027,318.1305960000027,318.31200920000265,318.34519939999154,320.116011399994,x,1,0.37461139999504667,0.2002228999917861,,000005,001,2024-10-08_13h31.12.325,cpt_test,2024.2.2,60.099259934404294,2024-10-08 13h31.38.734426 -0600,
86,J,0,None,85,85,0,None,1,,,0,85,85,85,320.1289048000035,,,,,,,,,,,320.1163347999973,320.1289048000035,320.1289048000035,320.3105050000013,320.34334469999885,322.10464609999326,None,1,,,,000005,001,2024-10-08_13h31.12.325,cpt_test,2024.2.2,60.099259934404294,2024-10-08 13h31.38.734426 -0600,
87,N,0,None,86,86,0,None,1,,,0,86,86,86,322.1170378999959,,,,,,,,,,,322.10489449999295,322.1170378999959,322.1170378999959,322.30885000000126,322.32523810000566,324.11269330000505,None,1,,,,000005,001,2024-10-08_13h31.12.325,cpt_test,2024.2.2,60.099259934404294,2024-10-08 13h31.38.734426 -0600,
88,X,1,x,87,87,0,x,1,0.5067401999986032,0.22321460000239313,0,87,87,87,324.1256660999934,,,,,,,,,,,324.11303969999426,324.1256660999934,324.1256660999934,324.30714580000495,324.3401268000016,326.1110541999951,x,1,0.5067401999986032,0.22321460000239313,,000005,001,2024-10-08_13h31.12.325,cpt_test,2024.2.2,60.099259934404294,2024-10-08 13h31.38.734426 -0600,
89,T,0,None,88,88,0,None,1,,,0,88,88,88,326.12373500000103,,,,,,,,,,,326.11137499999313,326.12373500000103,326.12373500000103,326.30560229999537,326.33849069999997,328.1093581000023,None,1,,,,000005,001,2024-10-08_13h31.12.325,cpt_test,2024.2.2,60.099259934404294,2024-10-08 13h31.38.734426 -0600,
90,I,0,None,89,89,0,None,1,,,0,89,89,89,328.12039870000444,,,,,,,,,,,328.10955110000214,328.12039870000444,328.12039870000444,328.3038135999959,328.3202627999999,330.1076195999922,None,1,,,,000005,001,2024-10-08_13h31.12.325,cpt_test,2024.2.2,60.099259934404294,2024-10-08 13h31.38.734426 -0600,
91,P,0,None,90,90,0,None,1,,,0,90,90,90,330.1214295999962,,,,,,,,,,,330.10794829999213,330.1214295999962,330.1214295999962,330.30220199999167,330.3352978000039,332.1060795999947,None,1,,,,000005,001,2024-10-08_13h31.12.325,cpt_test,2024.2.2,60.099259934404294,2024-10-08 13h31.38.734426 -0600,
92,X,1,x,91,91,0,x,1,0.36296679999213666,0.29010810000181664,0,91,91,91,332.11860109999543,,,,,,,,,,,332.10639449999144,332.11860109999543,332.11860109999543,332.30063090000476,332.33356020000065,334.1048077000014,x,1,0.36296679999213666,0.29010810000181664,,000005,001,2024-10-08_13h31.12.325,cpt_test,2024.2.2,60.099259934404294,2024-10-08 13h31.38.734426 -0600,
93,B,0,None,92,92,0,None,1,,,0,92,92,92,334.11750510000275,,,,,,,,,,,334.1051577000035,334.11750510000275,334.11750510000275,334.3156559999916,334.33196860000317,336.1027561999945,None,1,,,,000005,001,2024-10-08_13h31.12.325,cpt_test,2024.2.2,60.099259934404294,2024-10-08 13h31.38.734426 -0600,
94,M,0,None,93,93,0,None,1,,,0,93,93,93,336.1156912000006,,,,,,,,,,,336.10308590000204,336.1156912000006,336.1156912000006,336.3140415999951,336.3301555999933,338.10120639999514,None,1,,,,000005,001,2024-10-08_13h31.12.325,cpt_test,2024.2.2,60.099259934404294,2024-10-08 13h31.38.734426 -0600,
95,B,0,None,94,94,0,None,1,,,0,94,94,94,338.1141792999988,,,,,,,,,,,338.10150799999246,338.1141792999988,338.1141792999988,338.312173600003,338.3286609999923,340.11389029999555,None,1,,,,000005,001,2024-10-08_13h31.12.325,cpt_test,2024.2.2,60.099259934404294,2024-10-08 13h31.38.734426 -0600,
96,I,0,None,95,95,0,None,1,,,0,95,95,95,340.1270155999955,,,,,,,,,,,340.114115999997,340.1270155999955,340.1270155999955,340.2994505999959,340.3297550999996,342.1149041000026,None,1,,,342.10892119999335,000005,001,2024-10-08_13h31.12.325,cpt_test,2024.2.2,60.099259934404294,2024-10-08 13h31.38.734426 -0600,
97,X,1,x,96,96,0,x,1,0.4486252000060631,0.21037909999722615,0,96,96,96,342.12788070000533,,,,,,,,,,,342.1152174000017,342.12788070000533,342.12788070000533,342.30968429999484,342.3436129000038,344.11317979999876,x,1,0.4486252000060631,0.21037909999722615,,000005,001,2024-10-08_13h31.12.325,cpt_test,2024.2.2,60.099259934404294,2024-10-08 13h31.38.734426 -0600,
98,J,0,None,97,97,0,None,1,,,0,97,97,97,344.12611579999793,,,,,,,,,,,344.113506099995,344.12611579999793,344.12611579999793,344.30713200000173,344.3404174000025,346.1110148000007,None,1,,,,000005,001,2024-10-08_13h31.12.325,cpt_test,2024.2.2,60.099259934404294,2024-10-08 13h31.38.734426 -0600,
99,X,1,x,98,98,0,x,1,0.488592100009555,0.2059672000032151,0,98,98,98,346.12428999999247,,,,,,,,,,,346.11132080000243,346.12428999999247,346.12428999999247,346.30555219999223,346.3385691000003,348.1147554000054,x,1,0.488592100009555,0.2059672000032151,,000005,001,2024-10-08_13h31.12.325,cpt_test,2024.2.2,60.099259934404294,2024-10-08 13h31.38.734426 -0600,
100,U,0,None,99,99,0,None,1,,,0,99,99,99,348.13257729999896,,,,,,,,,,,348.115343700003,348.13257729999896,348.13257729999896,348.3082039000001,348.3380329999927,350.1091893999983,None,1,,,,000005,001,2024-10-08_13h31.12.325,cpt_test,2024.2.2,60.099259934404294,2024-10-08 13h31.38.734426 -0600,
101,D,0,None,100,100,0,None,1,,,0,100,100,100,350.1239532000036,,,,,,,,,,,350.1095973000047,350.1239532000036,350.1239532000036,350.3115375000052,350.3282685000013,352.1063184999948,None,1,,,,000005,001,2024-10-08_13h31.12.325,cpt_test,2024.2.2,60.099259934404294,2024-10-08 13h31.38.734426 -0600,
102,X,1,x,101,101,0,x,1,0.34440750000067055,0.21320849999028724,0,101,101,101,352.1192336999957,,,,,,,,,,,352.10662690000026,352.1192336999957,352.1192336999957,352.30069200000435,352.3337146999984,354.10533370000485,x,1,0.34440750000067055,0.21320849999028724,,000005,001,2024-10-08_13h31.12.325,cpt_test,2024.2.2,60.099259934404294,2024-10-08 13h31.38.734426 -0600,
103,X,1,x,102,102,0,x,1,0.3400906000024406,0.22407679999014363,0,102,102,102,354.116056800005,,,,,,,,,,,354.10565060000226,354.116056800005,354.116056800005,354.3154368999967,354.3154368999967,356.1033307000034,x,1,0.3400906000024406,0.22407679999014363,,000005,001,2024-10-08_13h31.12.325,cpt_test,2024.2.2,60.099259934404294,2024-10-08 13h31.38.734426 -0600,
104,N,0,None,103,103,0,None,1,,,0,103,103,103,356.1151319999917,,,,,,,,,,,356.10366059999797,356.1151319999917,356.1151319999917,356.31541460000153,356.31541460000153,358.10228330000245,None,1,,,,000005,001,2024-10-08_13h31.12.325,cpt_test,2024.2.2,60.099259934404294,2024-10-08 13h31.38.734426 -0600,
105,U,0,None,104,104,0,None,1,,,0,104,104,104,358.1147632999928,,,,,,,,,,,358.1026034999959,358.1147632999928,358.1147632999928,358.31255069999315,358.3287041000003,360.1166858999932,None,1,,,,000005,001,2024-10-08_13h31.12.325,cpt_test,2024.2.2,60.099259934404294,2024-10-08 13h31.38.734426 -0600,
106,T,0,None,105,105,0,None,1,,,0,105,105,105,360.1295531999931,,,,,,,,,,,360.11699149999185,360.1295531999931,360.1295531999931,360.310661800002,360.343933199998,362.11510359999374,None,1,,,,000005,001,2024-10-08_13h31.12.325,cpt_test,2024.2.2,60.099259934404294,2024-10-08 13h31.38.734426 -0600,
107,W,0,None,106,106,0,None,1,,,0,106,106,106,362.12848210000084,,,,,,,,,,,362.11540769999556,362.12848210000084,362.12848210000084,362.30917670000053,362.34228989999974,364.11347959999694,None,1,,,,000005,001,2024-10-08_13h31.12.325,cpt_test,2024.2.2,60.099259934404294,2024-10-08 13h31.38.734426 -0600,
108,N,0,None,107,107,0,None,1,,,0,107,107,107,364.1267990000051,,,,,,,,,,,364.11380209999334,364.1267990000051,364.1267990000051,364.3075424999988,364.34056719999353,366.11166850000154,None,1,,,,000005,001,2024-10-08_13h31.12.325,cpt_test,2024.2.2,60.099259934404294,2024-10-08 13h31.38.734426 -0600,
109,R,0,None,108,108,0,None,1,,,0,108,108,108,366.1247915999993,,,,,,,,,,,366.11198319999676,366.1247915999993,366.1247915999993,366.3060850000038,366.33876529999543,368.10947450000094,None,1,,,,000005,001,2024-10-08_13h31.12.325,cpt_test,2024.2.2,60.099259934404294,2024-10-08 13h31.38.734426 -0600,
110,X,1,x,109,109,0,x,1,0.3058489999966696,0.2054199999984121,0,109,109,109,368.1211704000016,,,,,,,,,,,368.1096624000056,368.1211704000016,368.1211704000016,368.30413429999317,368.3206108000013,370.1086082999973,x,1,0.3058489999966696,0.2054199999984121,,000005,001,2024-10-08_13h31.12.325,cpt_test,2024.2.2,60.099259934404294,2024-10-08 13h31.38.734426 -0600,
111,A,0,None,110,110,0,None,1,,,0,110,110,110,370.12273629999254,,,,,,,,,,,370.1089417000039,370.12273629999254,370.12273629999254,370.3026286999957,370.3356932000024,372.10762850000174,None,1,,,,000005,001,2024-10-08_13h31.12.325,cpt_test,2024.2.2,60.099259934404294,2024-10-08 13h31.38.734426 -0600,
112,X,1,x,111,111,0,x,1,0.43911649999790825,0.21346519999497104,0,111,111,111,372.12231180000526,,,,,,,,,,,372.1080227999919,372.12231180000526,372.12231180000526,372.30115460000525,372.33383570000296,374.104980899996,x,1,0.43911649999790825,0.21346519999497104,,000005,001,2024-10-08_13h31.12.325,cpt_test,2024.2.2,60.099259934404294,2024-10-08 13h31.38.734426 -0600,
113,G,0,None,112,112,0,None,1,,,0,112,112,112,374.1185234000004,,,,,,,,,,,374.10531879999326,374.1185234000004,374.1185234000004,374.3160988000018,374.3324147999956,376.1031972000055,None,1,,,,000005,001,2024-10-08_13h31.12.325,cpt_test,2024.2.2,60.099259934404294,2024-10-08 13h31.38.734426 -0600,
114,O,0,None,113,113,0,None,1,,,0,113,113,113,376.1161171999993,,,,,,,,,,,376.10350019999896,376.1161171999993,376.1161171999993,376.31445299999905,376.33056410000427,378.10172829999647,None,1,,,,000005,001,2024-10-08_13h31.12.325,cpt_test,2024.2.2,60.099259934404294,2024-10-08 13h31.38.734426 -0600,
115,U,0,None,114,114,0,None,1,,,0,114,114,114,378.11478249999345,,,,,,,,,,,378.10204050000175,378.11478249999345,378.11478249999345,378.3126402999915,378.3290573999984,380.11648389999755,None,1,,,,000005,001,2024-10-08_13h31.12.325,cpt_test,2024.2.2,60.099259934404294,2024-10-08 13h31.38.734426 -0600,
116,X,1,x,115,115,0,x,1,0.34618459999910556,0.218610500000068,0,115,115,115,380.1294437000033,,,,,,,,,,,380.11680299999716,380.1294437000033,380.1294437000033,380.3108673999959,380.34391339999274,382.1150864999945,x,1,0.34618459999910556,0.218610500000068,,000005,001,2024-10-08_13h31.12.325,cpt_test,2024.2.2,60.099259934404294,2024-10-08 13h31.38.734426 -0600,
117,X,1,x,116,116,0,x,1,0.42118059999484103,0.19135200000891928,0,116,116,116,382.12610900000436,,,,,,,,,,,382.115406500001,382.12610900000436,382.12610900000436,382.30935519999184,382.3256270999991,384.1147372999985,x,1,0.42118059999484103,0.19135200000891928,,000005,001,2024-10-08_13h31.12.325,cpt_test,2024.2.2,60.099259934404294,2024-10-08 13h31.38.734426 -0600,
118,C,0,None,117,117,0,None,1,,,0,117,117,117,384.12944839999545,,,,,,,,,,,384.11513829999603,384.12944839999545,384.12944839999545,384.3076432999951,384.34063340000284,386.11165150000306,None,1,,,,000005,001,2024-10-08_13h31.12.325,cpt_test,2024.2.2,60.099259934404294,2024-10-08 13h31.38.734426 -0600,
119,A,0,None,118,118,0,None,1,,,0,118,118,118,386.1242401000054,,,,,,,,,,,386.1119652999914,386.1242401000054,386.1242401000054,386.30614929999865,386.3390983999998,388.1037163000001,None,1,,,,000005,001,2024-10-08_13h31.12.325,cpt_test,2024.2.2,60.099259934404294,2024-10-08 13h31.38.734426 -0600,
120,X,1,x,119,119,0,x,1,0.28424389999418054,0.19962970000051428,0,119,119,119,388.11690799999633,,,,,,,,,,,388.104021799998,388.11690799999633,388.11690799999633,388.3043304000021,388.3208542999928,390.1088005000056,x,1,0.28424389999418054,0.19962970000051428,,000005,001,2024-10-08_13h31.12.325,cpt_test,2024.2.2,60.099259934404294,2024-10-08 13h31.38.734426 -0600,
121,H,0,None,120,120,0,None,1,,,0,120,120,120,390.1221637999988,,,,,,,,,,,390.1091570999997,390.1221637999988,390.1221637999988,390.3026428000012,390.33588600000076,392.1064796999999,None,1,,,,000005,001,2024-10-08_13h31.12.325,cpt_test,2024.2.2,60.099259934404294,2024-10-08 13h31.38.734426 -0600,
122,M,0,None,121,121,0,None,1,,,0,121,121,121,392.11952569999266,,,,,,,,,,,392.10683150000114,392.11952569999266,392.11952569999266,392.30126310000196,392.3340215999924,394.1051029999944,None,1,,,,000005,001,2024-10-08_13h31.12.325,cpt_test,2024.2.2,60.099259934404294,2024-10-08 13h31.38.734426 -0600,
123,V,0,None,122,122,0,None,1,,,0,122,122,122,394.11816729999555,,,,,,,,,,,394.10540640000545,394.11816729999555,394.11816729999555,394.31621099999757,394.33261080000375,396.1035761999956,None,1,,,,000005,001,2024-10-08_13h31.12.325,cpt_test,2024.2.2,60.099259934404294,2024-10-08 13h31.38.734426 -0600,
124,K,0,None,123,123,0,None,1,,,0,123,123,123,396.11660429999756,,,,,,,,,,,396.10387969999283,396.11660429999756,396.11660429999756,396.3146059999999,396.330781800003,398.1016740999912,None,1,,,,000005,001,2024-10-08_13h31.12.325,cpt_test,2024.2.2,60.099259934404294,2024-10-08 13h31.38.734426 -0600,
125,G,0,None,124,124,0,None,1,,,0,124,124,124,398.11470809999446,,,,,,,,,,,398.1019857999927,398.11470809999446,398.11470809999446,398.3129967999994,398.3291895000002,400.1170149999962,None,1,,,,000005,001,2024-10-08_13h31.12.325,cpt_test,2024.2.2,60.099259934404294,2024-10-08 13h31.38.734426 -0600,
126,A,0,None,125,125,0,None,1,,,0,125,125,125,400.12997890000406,,,,,,,,,,,400.1173220000055,400.12997890000406,400.12997890000406,400.3112645999936,400.34407849999843,402.1151671999978,None,1,,,,000005,001,2024-10-08_13h31.12.325,cpt_test,2024.2.2,60.099259934404294,2024-10-08 13h31.38.734426 -0600,
127,X,1,x,126,126,0,x,1,0.26639520000026096,0.23677730000053998,0,126,126,126,402.1285510000016,,,,,,,,,,,402.1154788999993,402.1285510000016,402.1285510000016,402.3096193999954,402.34248059999663,404.1133173999988,x,1,0.26639520000026096,0.23677730000053998,,000005,001,2024-10-08_13h31.12.325,cpt_test,2024.2.2,60.099259934404294,2024-10-08 13h31.38.734426 -0600,
128,N,0,None,127,127,0,None,1,,,0,127,127,127,404.126477400001,,,,,,,,,,,404.1136605999927,404.126477400001,404.126477400001,404.3081144000025,404.34207489999244,406.1137269000028,None,1,,,,000005,001,2024-10-08_13h31.12.325,cpt_test,2024.2.2,60.099259934404294,2024-10-08 13h31.38.734426 -0600,
129,Y,0,None,128,128,0,None,1,,,0,128,128,128,406.12833550000505,,,,,,,,,,,406.11413839999295,406.12833550000505,406.12833550000505,406.31593680000515,406.33236749999924,408.110159200005,None,1,,,,000005,001,2024-10-08_13h31.12.325,cpt_test,2024.2.2,60.099259934404294,2024-10-08 13h31.38.734426 -0600,
130,W,0,None,129,129,0,None,1,,,0,129,129,129,408.12340899999253,,,,,,,,,,,408.1104814999999,408.12340899999253,408.12340899999253,408.3048143000051,408.33762019999267,410.10881760000484,None,1,,,,000005,001,2024-10-08_13h31.12.325,cpt_test,2024.2.2,60.099259934404294,2024-10-08 13h31.38.734426 -0600,
131,L,0,None,130,130,0,None,1,,,0,130,130,130,410.12188360000437,,,,,,,,,,,410.10915409999143,410.12188360000437,410.12188360000437,410.30277949999436,410.33592840000347,412.1070494000014,None,1,,,,000005,001,2024-10-08_13h31.12.325,cpt_test,2024.2.2,60.099259934404294,2024-10-08 13h31.38.734426 -0600,
132,F,0,None,131,131,0,None,1,,,0,131,131,131,412.1201311000041,,,,,,,,,,,412.10736549999274,412.1201311000041,412.1201311000041,412.30140850000316,412.33419429999776,414.10535399999935,None,1,,,,000005,001,2024-10-08_13h31.12.325,cpt_test,2024.2.2,60.099259934404294,2024-10-08 13h31.38.734426 -0600,
133,E,0,None,132,132,0,None,1,,,0,132,132,132,414.1163855999912,,,,,,,,,,,414.1055440999917,414.1163855999912,414.1163855999912,414.31619379999756,414.31619379999756,416.10335839999607,None,1,,,,000005,001,2024-10-08_13h31.12.325,cpt_test,2024.2.2,60.099259934404294,2024-10-08 13h31.38.734426 -0600,
134,L,0,None,133,133,0,None,1,,,0,133,133,133,416.11617079999996,,,,,,,,,,,416.103669499993,416.11617079999996,416.11617079999996,416.3143764999986,416.3307601999986,418.1017407000036,None,1,,,,000005,001,2024-10-08_13h31.12.325,cpt_test,2024.2.2,60.099259934404294,2024-10-08 13h31.38.734426 -0600,
135,K,0,None,134,134,0,None,1,,,0,134,134,134,418.11476490000496,,,,,,,,,,,418.1020450999931,418.11476490000496,418.11476490000496,418.3129845999938,418.3293943000026,420.11751060000097,None,1,,,,000005,001,2024-10-08_13h31.12.325,cpt_test,2024.2.2,60.099259934404294,2024-10-08 13h31.38.734426 -0600,
136,Q,0,None,135,135,0,None,1,,,0,135,135,135,420.13183359999675,,,,,,,,,,,420.1178552000056,420.13183359999675,420.13183359999675,420.3115320999932,420.3442439999926,422.1151785999973,None,1,,,,000005,001,2024-10-08_13h31.12.325,cpt_test,2024.2.2,60.099259934404294,2024-10-08 13h31.38.734426 -0600,
137,X,1,x,136,136,0,x,1,0.3620265999925323,0.19686969999747816,0,136,136,136,422.1281172000017,,,,,,,,,,,422.1154833000037,422.1281172000017,422.1281172000017,422.31304150000506,422.3274708999961,424.11357359999965,x,1,0.3620265999925323,0.19686969999747816,,000005,001,2024-10-08_13h31.12.325,cpt_test,2024.2.2,60.099259934404294,2024-10-08 13h31.38.734426 -0600,
138,J,0,None,137,137,0,None,1,,,0,137,137,137,424.12666270000045,,,,,,,,,,,424.1138884999964,424.12666270000045,424.12666270000045,424.3079846000037,424.3411439000047,426.11373840000306,None,1,,,,000005,001,2024-10-08_13h31.12.325,cpt_test,2024.2.2,60.099259934404294,2024-10-08 13h31.38.734426 -0600,
139,X,1,x,138,138,0,x,1,0.34886090000509284,0.22414950000529643,0,138,138,138,426.1282041999948,,,,,,,,,,,426.1141343000054,426.1282041999948,426.1282041999948,426.3063478999975,426.3394574999984,428.11045049999666,x,1,0.34886090000509284,0.22414950000529643,,000005,001,2024-10-08_13h31.12.325,cpt_test,2024.2.2,60.099259934404294,2024-10-08 13h31.38.734426 -0600,
140,E,0,None,139,139,0,None,1,,,0,139,139,139,428.1235461000033,,,,,,,,,,,428.11079379999137,428.1235461000033,428.1235461000033,428.3048456999968,428.3379394999938,430.1087009000039,None,1,,,,000005,001,2024-10-08_13h31.12.325,cpt_test,2024.2.2,60.099259934404294,2024-10-08 13h31.38.734426 -0600,
141,T,0,None,140,140,0,None,1,,,0,140,140,140,430.1212244000053,,,,,,,,,,,430.1090011999913,430.1212244000053,430.1212244000053,430.303261699999,430.33604349999223,432.10699430000386,None,1,,,,000005,001,2024-10-08_13h31.12.325,cpt_test,2024.2.2,60.099259934404294,2024-10-08 13h31.38.734426 -0600,
142,X,1,x,141,141,0,x,1,0.3513768999982858,0.20949750000727363,0,141,141,141,432.1197749999992,,,,,,,,,,,432.10730909999984,432.1197749999992,432.1197749999992,432.30160789999354,432.33435059999465,434.10561929999676,x,1,0.3513768999982858,0.20949750000727363,,000005,001,2024-10-08_13h31.12.325,cpt_test,2024.2.2,60.099259934404294,2024-10-08 13h31.38.734426 -0600,
143,Q,0,None,142,142,0,None,1,,,0,142,142,142,434.11873780000315,,,,,,,,,,,434.10596250000526,434.11873780000315,434.11873780000315,434.31664839999576,434.33274329999404,436.1038503000018,None,1,,,,000005,001,2024-10-08_13h31.12.325,cpt_test,2024.2.2,60.099259934404294,2024-10-08 13h31.38.734426 -0600,
144,V,0,None,143,143,0,None,1,,,0,143,143,143,436.1170325999992,,,,,,,,,,,436.1041827000008,436.1170325999992,436.1170325999992,436.31501249999565,436.33120529999724,438.1023425000021,None,1,,,,000005,001,2024-10-08_13h31.12.325,cpt_test,2024.2.2,60.099259934404294,2024-10-08 13h31.38.734426 -0600,
145,Y,0,None,144,144,0,None,1,,,0,144,144,144,438.11551629999303,,,,,,,,,,,438.1026511999953,438.11551629999303,438.11551629999303,438.31315200000245,438.3296562000032,440.1171839000017,None,1,,,,000005,001,2024-10-08_13h31.12.325,cpt_test,2024.2.2,60.099259934404294,2024-10-08 13h31.38.734426 -0600,
146,O,0,None,145,145,0,None,1,,,0,145,145,145,440.12991010000405,,,,,,,,,,,440.11750540000503,440.12991010000405,440.12991010000405,440.311529300001,440.34465929999715,442.11564160000125,None,1,,,,000005,001,2024-10-08_13h31.12.325,cpt_test,2024.2.2,60.099259934404294,2024-10-08 13h31.38.734426 -0600,
147,T,0,None,146,146,0,None,1,,,0,146,146,146,442.1282615999953,,,,,,,,,,,442.115953600005,442.1282615999953,442.1282615999953,442.30997760000173,442.3429400000023,444.11377209999773,None,1,,,,000005,001,2024-10-08_13h31.12.325,cpt_test,2024.2.2,60.099259934404294,2024-10-08 13h31.38.734426 -0600,
148,X,1,x,147,147,0,x,1,0.3595997999946121,0.21855380000488367,0,147,147,147,444.12665799999377,,,,,,,,,,,444.11407759999565,444.12665799999377,444.12665799999377,444.3083481999929,444.3411461999931,446.1124506000051,x,1,0.3595997999946121,0.21855380000488367,,000005,001,2024-10-08_13h31.12.325,cpt_test,2024.2.2,60.099259934404294,2024-10-08 13h31.38.734426 -0600,
149,T,0,None,148,148,0,None,1,,,0,148,148,148,446.1259304999985,,,,,,,,,,,446.1127850000048,446.1259304999985,446.1259304999985,446.3067350999918,446.33976239999174,448.1102988000057,None,1,,,,000005,001,2024-10-08_13h31.12.325,cpt_test,2024.2.2,60.099259934404294,2024-10-08 13h31.38.734426 -0600,
150,S,0,None,149,149,0,None,1,,,0,149,149,149,448.12166279999656,,,,,,,,,,,448.11048659999506,448.12166279999656,448.12166279999656,448.3051027000038,448.3213129999931,450.11137499999313,None,1,,,,000005,001,2024-10-08_13h31.12.325,cpt_test,2024.2.2,60.099259934404294,2024-10-08 13h31.38.734426 -0600,
151,L,0,None,150,150,0,None,1,,,0,150,150,150,450.12632490000397,,,,,,,,,,,450.11175840000215,450.12632490000397,450.12632490000397,450.30344609999156,450.3364864000032,452.1078118000005,None,1,,,,000005,001,2024-10-08_13h31.12.325,cpt_test,2024.2.2,60.099259934404294,2024-10-08 13h31.38.734426 -0600,
152,V,0,None,151,151,0,None,1,,,0,151,151,151,452.12065519999305,,,,,,,,,,,452.1081264999957,452.12065519999305,452.12065519999305,452.3013687000057,452.3344098999951,454.1069628999976,None,1,,,,000005,001,2024-10-08_13h31.12.325,cpt_test,2024.2.2,60.099259934404294,2024-10-08 13h31.38.734426 -0600,
153,C,0,None,152,152,0,None,1,,,0,152,152,152,454.12138640000194,,,,,,,,,,,454.107359799993,454.12138640000194,454.12138640000194,454.30779629999597,454.3245461000042,456.1056205999921,None,1,,,,000005,001,2024-10-08_13h31.12.325,cpt_test,2024.2.2,60.099259934404294,2024-10-08 13h31.38.734426 -0600,
154,U,0,None,153,153,0,None,1,,,0,153,153,153,456.12216099999205,,,,,,,,,,,456.10616159999336,456.12216099999205,456.12216099999205,456.3026283999934,456.332640099994,458.11120729999675,None,1,,,458.10567119999905,000005,001,2024-10-08_13h31.12.325,cpt_test,2024.2.2,60.099259934404294,2024-10-08 13h31.38.734426 -0600,
155,X,1,x,154,154,0,x,1,0.32657319999998435,0.2086027000041213,0,154,154,154,458.1241733999923,,,,,,,,,,,458.11150440000347,458.1241733999923,458.1241733999923,458.3134716999921,458.32963179999206,460.11056250000547,x,1,0.32657319999998435,0.2086027000041213,,000005,001,2024-10-08_13h31.12.325,cpt_test,2024.2.2,60.099259934404294,2024-10-08 13h31.38.734426 -0600,
156,X,1,x,155,155,0,x,1,0.4953957999969134,0.22425660000590142,0,155,155,155,460.1195196000044,,,,,,,,,,,460.11087920000136,460.1195196000044,460.1195196000044,460.31186269999307,460.32816069999535,462.11555610000505,x,1,0.4953957999969134,0.22425660000590142,,000005,001,2024-10-08_13h31.12.325,cpt_test,2024.2.2,60.099259934404294,2024-10-08 13h31.38.734426 -0600,
157,L,0,None,156,156,0,None,1,,,0,156,156,156,462.12880530000257,,,,,,,,,,,462.11589030000323,462.12880530000257,462.12880530000257,462.3102336000011,462.3430818999914,464.11430349999864,None,1,,,,000005,001,2024-10-08_13h31.12.325,cpt_test,2024.2.2,60.099259934404294,2024-10-08 13h31.38.734426 -0600,
158,W,0,None,157,157,0,None,1,,,0,157,157,157,464.1276019999932,,,,,,,,,,,464.1146441000019,464.1276019999932,464.1276019999932,464.3086859000032,464.34141150000505,466.11279650000506,None,1,,,,000005,001,2024-10-08_13h31.12.325,cpt_test,2024.2.2,60.099259934404294,2024-10-08 13h31.38.734426 -0600,
159,A,0,None,158,158,0,None,1,,,0,158,158,158,466.12557099999685,,,,,,,,,,,466.113142400005,466.12557099999685,466.12557099999685,466.3064702999982,466.33977530000266,468.1108157999988,None,1,,,,000005,001,2024-10-08_13h31.12.325,cpt_test,2024.2.2,60.099259934404294,2024-10-08 13h31.38.734426 -0600,
160,X,1,x,159,159,0,x,1,0.39668869999877643,0.23481189999438357,0,159,159,159,468.1239371999982,,,,,,,,,,,468.11111909999454,468.1239371999982,468.1239371999982,468.3053399999917,468.33808669999416,470.10940459999256,x,1,0.39668869999877643,0.23481189999438357,,000005,001,2024-10-08_13h31.12.325,cpt_test,2024.2.2,60.099259934404294,2024-10-08 13h31.38.734426 -0600,
161,A,0,None,160,160,0,None,1,,,0,160,160,160,470.1224929000018,,,,,,,,,,,470.1097412999952,470.1224929000018,470.1224929000018,470.3047510000033,470.33889879999333,472.10904819999996,None,1,,,,000005,001,2024-10-08_13h31.12.325,cpt_test,2024.2.2,60.099259934404294,2024-10-08 13h31.38.734426 -0600,
162,M,0,None,161,161,0,None,1,,,0,161,161,161,472.12366729999485,,,,,,,,,,,472.1094426000054,472.12366729999485,472.12366729999485,472.30591110000387,472.33578389999457,474.1104822000052,None,1,,,,000005,001,2024-10-08_13h31.12.325,cpt_test,2024.2.2,60.099259934404294,2024-10-08 13h31.38.734426 -0600,
163,X,1,x,162,162,0,x,1,0.645317900009104,0.20654479999211617,0,162,162,162,474.12416789999406,,,,,,,,,,,474.1108871000033,474.12416789999406,474.12416789999406,474.30028919999313,474.3333890999929,476.10229779999645,x,1,0.645317900009104,0.20654479999211617,,000005,001,2024-10-08_13h31.12.325,cpt_test,2024.2.2,60.099259934404294,2024-10-08 13h31.38.734426 -0600,
164,X,1,x,163,163,0,x,1,0.4063138000055915,0.209245899997768,0,163,163,163,476.1153115000052,,,,,,,,,,,476.10251709999284,476.1153115000052,476.1153115000052,476.3146703999955,476.3146703999955,478.1023716000054,x,1,0.4063138000055915,0.209245899997768,,000005,001,2024-10-08_13h31.12.325,cpt_test,2024.2.2,60.099259934404294,2024-10-08 13h31.38.734426 -0600,
165,K,0,None,164,164,0,None,1,,,0,164,164,164,478.11556199999177,,,,,,,,,,,478.10271370000555,478.11556199999177,478.11556199999177,478.3134843000007,478.3298332999984,480.1173137000005,None,1,,,,000005,001,2024-10-08_13h31.12.325,cpt_test,2024.2.2,60.099259934404294,2024-10-08 13h31.38.734426 -0600,
166,X,1,x,165,165,0,x,1,0.3814436999964528,0.223925500002224,0,165,165,165,480.1309217999951,,,,,,,,,,,480.1176625999942,480.1309217999951,480.1309217999951,480.3119102999917,480.34508719999576,482.1172898999939,x,1,0.3814436999964528,0.223925500002224,,000005,001,2024-10-08_13h31.12.325,cpt_test,2024.2.2,60.099259934404294,2024-10-08 13h31.38.734426 -0600,
167,M,0,None,166,166,0,None,1,,,0,166,166,166,482.13241740000376,,,,,,,,,,,482.1177036000008,482.13241740000376,482.13241740000376,482.3105021999945,482.3433559999976,484.11468679999234,None,1,,,,000005,001,2024-10-08_13h31.12.325,cpt_test,2024.2.2,60.099259934404294,2024-10-08 13h31.38.734426 -0600,
168,X,1,x,167,167,0,x,1,0.3388370000029681,0.20618280000053346,0,167,167,167,484.1281134000019,,,,,,,,,,,484.1150209000043,484.1281134000019,484.1281134000019,484.3086028999969,484.34156939999957,486.1125480000046,x,1,0.3388370000029681,0.20618280000053346,,000005,001,2024-10-08_13h31.12.325,cpt_test,2024.2.2,60.099259934404294,2024-10-08 13h31.38.734426 -0600,
169,A,0,None,168,168,0,None,1,,,0,168,168,168,486.1255511999916,,,,,,,,,,,486.11290700000245,486.1255511999916,486.1255511999916,486.3070388000051,486.33985089999624,488.1109570999979,None,1,,,,000005,001,2024-10-08_13h31.12.325,cpt_test,2024.2.2,60.099259934404294,2024-10-08 13h31.38.734426 -0600,
170,X,1,x,169,169,0,x,1,0.3877087000000756,0.20081490000302438,0,169,169,169,488.1239770999964,,,,,,,,,,,488.11126109999896,488.1239770999964,488.1239770999964,488.3054362999974,488.3383538000053,490.1094056000002,x,1,0.3877087000000756,0.20081490000302438,,000005,001,2024-10-08_13h31.12.325,cpt_test,2024.2.2,60.099259934404294,2024-10-08 13h31.38.734426 -0600,
171,L,0,None,170,170,0,None,1,,,0,170,170,170,490.1223445999931,,,,,,,,,,,490.1097240999952,490.1223445999931,490.1223445999931,490.303917199999,490.3366137999983,492.1077307999949,None,1,,,,000005,001,2024-10-08_13h31.12.325,cpt_test,2024.2.2,60.099259934404294,2024-10-08 13h31.38.734426 -0600,
172,E,0,None,171,171,0,None,1,,,0,171,171,171,492.1207521000033,,,,,,,,,,,492.10803699999815,492.1207521000033,492.1207521000033,492.3039482000022,492.32064819999505,494.10631800000556,None,1,,,,000005,001,2024-10-08_13h31.12.325,cpt_test,2024.2.2,60.099259934404294,2024-10-08 13h31.38.734426 -0600,
173,T,0,None,172,172,0,None,1,,,0,172,172,172,494.1195346000022,,,,,,,,,,,494.1066362999991,494.1195346000022,494.1195346000022,494.3004574999941,494.3335100999975,496.10542170000554,None,1,,,,000005,001,2024-10-08_13h31.12.325,cpt_test,2024.2.2,60.099259934404294,2024-10-08 13h31.38.734426 -0600,
174,F,0,None,173,173,0,None,1,,,0,173,173,173,496.11939589999383,,,,,,,,,,,496.1058073000022,496.11939589999383,496.11939589999383,496.3012393999961,496.33165429999644,498.10398459999124,None,1,,,,000005,001,2024-10-08_13h31.12.325,cpt_test,2024.2.2,60.099259934404294,2024-10-08 13h31.38.734426 -0600,
175,M,0,None,174,174,0,None,1,,,0,174,174,174,498.11859410000034,,,,,,,,,,,498.1043695999979,498.11859410000034,498.11859410000034,498.30651039999793,498.32332919999317,500.1014526999934,None,1,,,,000005,001,2024-10-08_13h31.12.325,cpt_test,2024.2.2,60.099259934404294,2024-10-08 13h31.38.734426 -0600,
176,Q,0,None,175,175,0,None,1,,,0,175,175,175,500.1148958999984,,,,,,,,,,,500.1017816999956,500.1148958999984,500.1148958999984,500.3123040999926,500.3286339000042,502.10132649999287,None,1,,,,000005,001,2024-10-08_13h31.12.325,cpt_test,2024.2.2,60.099259934404294,2024-10-08 13h31.38.734426 -0600,
177,M,0,None,176,176,0,None,1,,,0,176,176,176,502.115260999999,,,,,,,,,,,502.10171020000416,502.115260999999,502.115260999999,502.3115630999964,502.3282091000001,504.11590449999494,None,1,,,,000005,001,2024-10-08_13h31.12.325,cpt_test,2024.2.2,60.099259934404294,2024-10-08 13h31.38.734426 -0600,
178,X,1,x,177,177,0,x,1,0.2930128000007244,0.19967649999307469,0,177,177,177,504.13048100000015,,,,,,,,,,,504.1162956000044,504.13048100000015,504.13048100000015,504.3088596000016,504.34187920000113,506.1025413000025,x,1,0.2930128000007244,0.19967649999307469,,000005,001,2024-10-08_13h31.12.325,cpt_test,2024.2.2,60.099259934404294,2024-10-08 13h31.38.734426 -0600,
179,V,0,None,178,178,0,None,1,,,0,178,178,178,506.1156265000027,,,,,,,,,,,506.102881800005,506.1156265000027,506.1156265000027,506.30925760000537,506.3259015999938,508.1116977000056,None,1,,,,000005,001,2024-10-08_13h31.12.325,cpt_test,2024.2.2,60.099259934404294,2024-10-08 13h31.38.734426 -0600,
180,M,0,None,179,179,0,None,1,,,0,179,179,179,508.1252434000053,,,,,,,,,,,508.1120336000022,508.1252434000053,508.1252434000053,508.305723700003,508.3387206000043,510.1106843000016,None,1,,,,000005,001,2024-10-08_13h31.12.325,cpt_test,2024.2.2,60.099259934404294,2024-10-08 13h31.38.734426 -0600,
181,P,0,None,180,180,0,None,1,,,0,180,180,180,510.1252628999937,,,,,,,,,,,510.1110631000047,510.1252628999937,510.1252628999937,510.31405559999985,510.32877569999255,512.1082861000032,None,1,,,,000005,001,2024-10-08_13h31.12.325,cpt_test,2024.2.2,60.099259934404294,2024-10-08 13h31.38.734426 -0600,
182,K,0,None,181,181,0,None,1,,,0,181,181,181,512.1209552999935,,,,,,,,,,,512.1086077999935,512.1209552999935,512.1209552999935,512.302265499995,512.3353738000005,514.1070748999919,None,1,,,,000005,001,2024-10-08_13h31.12.325,cpt_test,2024.2.2,60.099259934404294,2024-10-08 13h31.38.734426 -0600,
183,V,0,None,182,182,0,None,1,,,0,182,182,182,514.1201123999926,,,,,,,,,,,514.1073772999953,514.1201123999926,514.1201123999926,514.3005206999951,514.3338058999943,516.1042301999987,None,1,,,,000005,001,2024-10-08_13h31.12.325,cpt_test,2024.2.2,60.099259934404294,2024-10-08 13h31.38.734426 -0600,
184,G,0,None,183,183,0,None,1,,,0,183,183,183,516.1175362999929,,,,,,,,,,,516.1045294999931,516.1175362999929,516.1175362999929,516.3155524000031,516.3319050999999,518.1041356999922,None,1,,,,000005,001,2024-10-08_13h31.12.325,cpt_test,2024.2.2,60.099259934404294,2024-10-08 13h31.38.734426 -0600,
185,L,0,None,184,184,0,None,1,,,0,184,184,184,518.1187078999938,,,,,,,,,,,518.1045169999998,518.1187078999938,518.1187078999938,518.3046286000026,518.3193266000017,520.118038200002,None,1,,,520.1121443000011,000005,001,2024-10-08_13h31.12.325,cpt_test,2024.2.2,60.099259934404294,2024-10-08 13h31.38.734426 -0600,
186,Q,0,None,185,185,0,None,1,,,0,185,185,185,520.1311855999957,,,,,,,,,,,520.1183486999944,520.1311855999957,520.1311855999957,520.3124348999991,520.3453480000026,522.1174851999967,None,1,,,,000005,001,2024-10-08_13h31.12.325,cpt_test,2024.2.2,60.099259934404294,2024-10-08 13h31.38.734426 -0600,
187,N,0,None,186,186,0,None,1,,,0,186,186,186,522.1321244999999,,,,,,,,,,,522.1178860999935,522.1321244999999,522.1321244999999,522.2994392999972,522.3296071999939,524.1121800999972,None,1,,,524.1086409999989,000005,001,2024-10-08_13h31.12.325,cpt_test,2024.2.2,60.099259934404294,2024-10-08 13h31.38.734426 -0600,
188,K,0,None,187,187,0,None,1,,,0,187,187,187,524.1255921999982,,,,,,,,,,,524.1123827999982,524.1255921999982,524.1255921999982,524.3086951000005,524.3251598999923,526.1130677000037,None,1,,,,000005,001,2024-10-08_13h31.12.325,cpt_test,2024.2.2,60.099259934404294,2024-10-08 13h31.38.734426 -0600,
189,C,0,None,188,188,0,None,1,,,0,188,188,188,526.1259277999925,,,,,,,,,,,526.113367900005,526.1259277999925,526.1259277999925,526.3072689999972,526.3401696999936,528.1113936000038,None,1,,,,000005,001,2024-10-08_13h31.12.325,cpt_test,2024.2.2,60.099259934404294,2024-10-08 13h31.38.734426 -0600,
190,Z,0,None,189,189,0,None,1,,,0,189,189,189,528.1244130999985,,,,,,,,,,,528.1117460999958,528.1244130999985,528.1244130999985,528.3054602000047,528.338573999994,530.1098759000015,None,1,,,,000005,001,2024-10-08_13h31.12.325,cpt_test,2024.2.2,60.099259934404294,2024-10-08 13h31.38.734426 -0600,
191,I,0,None,190,190,0,None,1,,,0,190,190,190,530.1232826999913,,,,,,,,,,,530.1102013000054,530.1232826999913,530.1232826999913,530.3039114999992,530.3372479999962,532.109291899993,None,1,,,,000005,001,2024-10-08_13h31.12.325,cpt_test,2024.2.2,60.099259934404294,2024-10-08 13h31.38.734426 -0600,
192,J,0,None,191,191,0,None,1,,,0,191,191,191,532.1233393000002,,,,,,,,,,,532.1096928000043,532.1233393000002,532.1233393000002,532.302245800005,532.3356276999984,534.1078462000005,None,1,,,,000005,001,2024-10-08_13h31.12.325,cpt_test,2024.2.2,60.099259934404294,2024-10-08 13h31.38.734426 -0600,
193,X,1,x,192,192,0,x,1,0.4311718999961158,0.212394400004996,0,192,192,192,534.1204285999993,,,,,,,,,,,534.1081430000049,534.1204285999993,534.1204285999993,534.3006929999974,534.3338012000022,536.1059987000044,x,1,0.4311718999961158,0.212394400004996,,000005,001,2024-10-08_13h31.12.325,cpt_test,2024.2.2,60.099259934404294,2024-10-08 13h31.38.734426 -0600,
194,E,0,None,193,193,0,None,1,,,0,193,193,193,536.1210912999959,,,,,,,,,,,536.1064028999972,536.1210912999959,536.1210912999959,536.3157539999956,536.3322547999996,538.1028325999941,None,1,,,,000005,001,2024-10-08_13h31.12.325,cpt_test,2024.2.2,60.099259934404294,2024-10-08 13h31.38.734426 -0600,
195,X,1,x,194,194,0,x,1,0.31037360000482295,0.21368190000066534,0,194,194,194,538.1156711999938,,,,,,,,,,,538.1031317000015,538.1156711999938,538.1156711999938,538.3142568000039,538.3304359000031,540.1017298999941,x,1,0.31037360000482295,0.21368190000066534,,000005,001,2024-10-08_13h31.12.325,cpt_test,2024.2.2,60.099259934404294,2024-10-08 13h31.38.734426 -0600,
196,X,1,x,195,195,0,x,1,0.3630498999991687,0.21059979998972267,0,195,195,195,540.1125606999994,,,,,,,,,,,540.1020705999981,540.1125606999994,540.1125606999994,540.3142971000052,540.3142971000052,542.1154626999923,x,1,0.3630498999991687,0.21059979998972267,,000005,001,2024-10-08_13h31.12.325,cpt_test,2024.2.2,60.099259934404294,2024-10-08 13h31.38.734426 -0600,
197,O,0,None,196,196,0,None,1,,,0,196,196,196,542.127710300003,,,,,,,,,,,542.1157239000022,542.127710300003,542.127710300003,542.3109794000047,542.3273271999933,544.1146303999994,None,1,,,,000005,001,2024-10-08_13h31.12.325,cpt_test,2024.2.2,60.099259934404294,2024-10-08 13h31.38.734426 -0600,
198,X,1,x,197,197,0,x,1,0.397446700008004,0.22947029999340884,0,197,197,197,544.1275503999932,,,,,,,,,,,544.1149320999975,544.1275503999932,544.1275503999932,544.3092841000034,544.3422625999956,546.1147031,x,1,0.397446700008004,0.22947029999340884,,000005,001,2024-10-08_13h31.12.325,cpt_test,2024.2.2,60.099259934404294,2024-10-08 13h31.38.734426 -0600,
199,T,0,None,198,198,0,None,1,,,0,198,198,198,546.1292418999947,,,,,,,,,,,546.1151012000046,546.1292418999947,546.1292418999947,546.3074712999951,546.3405166000011,548.1109053999971,None,1,,,,000005,001,2024-10-08_13h31.12.325,cpt_test,2024.2.2,60.099259934404294,2024-10-08 13h31.38.734426 -0600,
200,X,1,x,199,199,0,x,1,0.309354600001825,0.21600230000331067,0,199,199,199,548.1242265000037,,,,,,,,,,,548.1112899,548.1242265000037,548.1242265000037,548.3058752999932,548.3391647999961,550.1100655000046,x,1,0.309354600001825,0.21600230000331067,,000005,001,2024-10-08_13h31.12.325,cpt_test,2024.2.2,60.099259934404294,2024-10-08 13h31.38.734426 -0600,
201,L,0,None,200,200,0,None,1,,,0,200,200,200,550.1230679,,,,,,,,,,,550.1104078999924,550.1230679,550.1230679,550.3043572000024,550.3374087999982,552.1085771999933,None,1,,,,000005,001,2024-10-08_13h31.12.325,cpt_test,2024.2.2,60.099259934404294,2024-10-08 13h31.38.734426 -0600,
