Number,letra,target,correctas,thisN,thisTrialN,thisRepN,respuesta.keys,respuesta.corr,respuesta.rt,respuesta.duration,trials.thisRepN,trials.thisTrialN,trials.thisN,trials.thisIndex,thisRow.t,notes,Ojos_abiertos.started,Abiertos.started,Ojos_abiertos.stopped,Ojos_cerrados.started,Cerrados.started,alert.started,Cerrados.stopped,Ojos_cerrados.stopped,Test.started,prueba.started,respuesta.started,text.started,prueba.stopped,text.stopped,Test.stopped,trials.respuesta.keys,trials.respuesta.corr,trials.respuesta.rt,trials.respuesta.duration,participant,session,date,expName,psychopyVersion,frameRate,expStart,
,,,,,,,,,,,,,,,,,0.008575799991376698,0.016617200017208233,90.01665800000774,,,,,,,,,,,,,,,,,000009,001,2024-10-09_12h34.12.988,cpt_test,2024.2.2,60.23617398712372,2024-10-09 12h34.40.292021 -0600,
,,,,,,,,,,,,,,,,,,,,90.01754739999888,90.03068110000459,150.014568866671,150.0314283000189,150.1016682999907,,,,,,,,,,,,000009,001,2024-10-09_12h34.12.988,cpt_test,2024.2.2,60.23617398712372,2024-10-09 12h34.40.292021 -0600,
1,A,0,None,0,0,0,None,1,,,0,0,0,0,150.2979706999904,,,,,,,,,,150.13703869999154,150.2979706999904,150.2979706999904,150.3097236000176,150.49763480000547,152.1129048000148,152.1156142000109,None,1,,,000009,001,2024-10-09_12h34.12.988,cpt_test,2024.2.2,60.23617398712372,2024-10-09 12h34.40.292021 -0600,
2,R,0,None,1,1,0,None,1,,,0,1,1,1,152.13416730001336,,,,,,,,,,152.11577649999526,152.13416730001336,152.13416730001336,152.3132210999902,152.34594640001887,,154.1146388000052,None,1,,,000009,001,2024-10-09_12h34.12.988,cpt_test,2024.2.2,60.23617398712372,2024-10-09 12h34.40.292021 -0600,
3,L,0,None,2,2,0,None,1,,,0,2,2,2,154.13416710001184,,,,,,,,,,154.11482049999177,154.13416710001184,154.13416710001184,154.3113372999942,154.34451809999882,,156.1164043000026,None,1,,,000009,001,2024-10-09_12h34.12.988,cpt_test,2024.2.2,60.23617398712372,2024-10-09 12h34.40.292021 -0600,
4,X,1,x,3,3,0,x,1,0.3429898000031244,0.17259860000922345,0,3,3,3,156.133056199993,,,,,,,,,,156.1166662000178,156.133056199993,156.133056199993,156.30967149999924,156.34299989999272,,158.11103269999148,x,1,0.3429898000031244,0.17259860000922345,000009,001,2024-10-09_12h34.12.988,cpt_test,2024.2.2,60.23617398712372,2024-10-09 12h34.40.292021 -0600,
5,O,0,None,4,4,0,None,1,,,0,4,4,4,158.12725620000856,,,,,,,,,,158.11121410000487,158.12725620000856,158.12725620000856,158.3083375999995,158.3412598000141,,160.10962659999495,None,1,,,000009,001,2024-10-09_12h34.12.988,cpt_test,2024.2.2,60.23617398712372,2024-10-09 12h34.40.292021 -0600,
6,G,0,None,5,5,0,None,1,,,0,5,5,5,160.12574789999053,,,,,,,,,,160.1098098999937,160.12574789999053,160.12574789999053,160.30662129999837,160.33958259999054,,162.10763579999912,None,1,,,000009,001,2024-10-09_12h34.12.988,cpt_test,2024.2.2,60.23617398712372,2024-10-09 12h34.40.292021 -0600,
7,P,0,None,6,6,0,None,1,,,0,6,6,6,162.12406490001013,,,,,,,,,,162.10786290001124,162.12406490001013,162.12406490001013,162.30477449999307,162.33776970001054,,164.1062157000124,None,1,,,000009,001,2024-10-09_12h34.12.988,cpt_test,2024.2.2,60.23617398712372,2024-10-09 12h34.40.292021 -0600,
8,X,1,x,7,7,0,x,1,0.40103690000250936,0.1916409000114072,0,7,7,7,164.1200775000034,,,,,,,,,,164.10640680001234,164.1200775000034,164.1200775000034,164.30299319999176,164.31955539999763,,166.10431260001496,x,1,0.40103690000250936,0.1916409000114072,000009,001,2024-10-09_12h34.12.988,cpt_test,2024.2.2,60.23617398712372,2024-10-09 12h34.40.292021 -0600,
9,X,1,x,8,8,0,x,1,0.4052298000024166,0.20195919999969192,0,8,8,8,166.1181268999935,,,,,,,,,,166.1044957000122,166.1181268999935,166.1181268999935,166.30165539999143,166.31798280001385,,168.10301330001676,x,1,0.4052298000024166,0.20195919999969192,000009,001,2024-10-09_12h34.12.988,cpt_test,2024.2.2,60.23617398712372,2024-10-09 12h34.40.292021 -0600,
10,Z,0,None,9,9,0,None,1,,,0,9,9,9,168.12098500001593,,,,,,,,,,168.10320240000146,168.12098500001593,168.12098500001593,168.2996909999929,168.333094600006,,170.1008958000166,None,1,,,000009,001,2024-10-09_12h34.12.988,cpt_test,2024.2.2,60.23617398712372,2024-10-09 12h34.40.292021 -0600,
11,I,0,None,10,10,0,None,1,,,0,10,10,10,170.11688280000817,,,,,,,,,,170.1010532999935,170.11688280000817,170.11688280000817,170.31466110001202,170.33136879999074,,172.11563439999009,None,1,,,000009,001,2024-10-09_12h34.12.988,cpt_test,2024.2.2,60.23617398712372,2024-10-09 12h34.40.292021 -0600,
12,D,0,None,11,11,0,None,1,,,0,11,11,11,172.13383589999285,,,,,,,,,,172.11579290000373,172.13383589999285,172.13383589999285,172.31317130001844,172.34629710001172,,174.11442960001295,None,1,,,000009,001,2024-10-09_12h34.12.988,cpt_test,2024.2.2,60.23617398712372,2024-10-09 12h34.40.292021 -0600,
13,X,1,x,12,12,0,x,1,0.3441893999988679,0.18616249997285195,0,12,12,12,174.12829829999828,,,,,,,,,,174.11460639999132,174.12829829999828,174.12829829999828,174.31173539999872,174.32821130001685,,176.1139814000053,x,1,0.3441893999988679,0.18616249997285195,000009,001,2024-10-09_12h34.12.988,cpt_test,2024.2.2,60.23617398712372,2024-10-09 12h34.40.292021 -0600,
14,Y,0,None,13,13,0,None,1,,,0,13,13,13,176.1369163999916,,,,,,,,,,176.1142233000137,176.1369163999916,176.1369163999916,176.30944169999566,176.34245280001778,,178.11163050000323,None,1,,,000009,001,2024-10-09_12h34.12.988,cpt_test,2024.2.2,60.23617398712372,2024-10-09 12h34.40.292021 -0600,
15,X,1,x,14,14,0,x,1,0.385883399983868,0.19548260001465678,0,14,14,14,178.12512640000205,,,,,,,,,,178.111839899997,178.12512640000205,178.12512640000205,178.3082900000154,178.32461840001633,,180.11068220000016,x,1,0.385883399983868,0.19548260001465678,000009,001,2024-10-09_12h34.12.988,cpt_test,2024.2.2,60.23617398712372,2024-10-09 12h34.40.292021 -0600,
16,X,1,x,15,15,0,x,1,0.496640799974557,0.1814001000020653,0,15,15,15,180.12337839999236,,,,,,,,,,180.1109248000139,180.12337839999236,180.12337839999236,180.30655740000657,180.3231681000034,,182.10762640001485,x,1,0.496640799974557,0.1814001000020653,000009,001,2024-10-09_12h34.12.988,cpt_test,2024.2.2,60.23617398712372,2024-10-09 12h34.40.292021 -0600,
17,A,0,None,16,16,0,None,1,,,0,16,16,16,182.12180930000613,,,,,,,,,,182.10779690000345,182.12180930000613,182.12180930000613,182.3048393999925,182.3232549999957,,184.10642590001225,None,1,,,000009,001,2024-10-09_12h34.12.988,cpt_test,2024.2.2,60.23617398712372,2024-10-09 12h34.40.292021 -0600,
18,J,0,None,17,17,0,None,1,,,0,17,17,17,184.12613980000606,,,,,,,,,,184.10660570001346,184.12613980000606,184.12613980000606,184.30313990000286,184.33653249999043,,186.104333700001,None,1,,,000009,001,2024-10-09_12h34.12.988,cpt_test,2024.2.2,60.23617398712372,2024-10-09 12h34.40.292021 -0600,
19,G,0,None,18,18,0,None,1,,,0,18,18,18,186.1183871999965,,,,,,,,,,186.10449210001389,186.1183871999965,186.1183871999965,186.30178650000016,186.31806399999186,,188.10302619999857,None,1,,,000009,001,2024-10-09_12h34.12.988,cpt_test,2024.2.2,60.23617398712372,2024-10-09 12h34.40.292021 -0600,
20,X,1,x,19,19,0,x,1,0.36520000000018626,0.18580870001460426,0,19,19,19,188.11674620001577,,,,,,,,,,188.1031970999902,188.11674620001577,188.11674620001577,188.29967050001142,188.31643710000208,,190.10103489999892,x,1,0.36520000000018626,0.18580870001460426,000009,001,2024-10-09_12h34.12.988,cpt_test,2024.2.2,60.23617398712372,2024-10-09 12h34.40.292021 -0600,
21,T,0,None,20,20,0,None,1,,,0,20,20,20,190.11872530000983,,,,,,,,,,190.10119129999657,190.11872530000983,190.11872530000983,190.314990999992,190.33157790001133,,192.11575110000558,None,1,,,000009,001,2024-10-09_12h34.12.988,cpt_test,2024.2.2,60.23617398712372,2024-10-09 12h34.40.292021 -0600,
22,S,0,None,21,21,0,None,1,,,0,21,21,21,192.134109000006,,,,,,,,,,192.11590699999942,192.134109000006,192.134109000006,192.31347369999276,192.34632800001418,,194.11466839999775,None,1,,,000009,001,2024-10-09_12h34.12.988,cpt_test,2024.2.2,60.23617398712372,2024-10-09 12h34.40.292021 -0600,
23,X,1,x,22,22,0,x,1,0.3591655000054743,0.1880652999971062,0,22,22,22,194.12890740000876,,,,,,,,,,194.1148375000048,194.12890740000876,194.12890740000876,194.31191340001533,194.3282039000187,,196.11265429999912,x,1,0.3591655000054743,0.1880652999971062,000009,001,2024-10-09_12h34.12.988,cpt_test,2024.2.2,60.23617398712372,2024-10-09 12h34.40.292021 -0600,
24,S,0,None,23,23,0,None,1,,,0,23,23,23,196.12711619999027,,,,,,,,,,196.11281120000058,196.12711619999027,196.12711619999027,196.31020760000683,196.32660000000033,,198.11121699999785,None,1,,,000009,001,2024-10-09_12h34.12.988,cpt_test,2024.2.2,60.23617398712372,2024-10-09 12h34.40.292021 -0600,
25,G,0,None,24,24,0,None,1,,,0,24,24,24,198.12559680000413,,,,,,,,,,198.11136619999888,198.12559680000413,198.12559680000413,198.30851830000756,198.3250886000169,,200.1098564999993,None,1,,,000009,001,2024-10-09_12h34.12.988,cpt_test,2024.2.2,60.23617398712372,2024-10-09 12h34.40.292021 -0600,
26,O,0,None,25,25,0,None,1,,,0,25,25,25,200.123782700015,,,,,,,,,,200.11004259999027,200.123782700015,200.123782700015,200.30706150000333,200.32309799999348,,202.10833580000326,None,1,,,000009,001,2024-10-09_12h34.12.988,cpt_test,2024.2.2,60.23617398712372,2024-10-09 12h34.40.292021 -0600,
27,P,0,None,26,26,0,None,1,,,0,26,26,26,202.12207209999906,,,,,,,,,,202.1085263999994,202.12207209999906,202.12207209999906,202.3049319999991,202.32160349999322,,204.10617670000647,None,1,,,000009,001,2024-10-09_12h34.12.988,cpt_test,2024.2.2,60.23617398712372,2024-10-09 12h34.40.292021 -0600,
28,Z,0,None,27,27,0,None,1,,,0,27,27,27,204.120493800001,,,,,,,,,,204.10633400001097,204.120493800001,204.120493800001,204.30351970001357,204.319940699992,,206.10448450001422,None,1,,,000009,001,2024-10-09_12h34.12.988,cpt_test,2024.2.2,60.23617398712372,2024-10-09 12h34.40.292021 -0600,
29,X,1,x,28,28,0,x,1,0.36308109998935834,0.18998759999522008,0,28,28,28,206.11875940000755,,,,,,,,,,206.10464460001094,206.11875940000755,206.11875940000755,206.30178680000245,206.31824359999155,,208.10293320001801,x,1,0.36308109998935834,0.18998759999522008,000009,001,2024-10-09_12h34.12.988,cpt_test,2024.2.2,60.23617398712372,2024-10-09 12h34.40.292021 -0600,
30,I,0,None,29,29,0,None,1,,,0,29,29,29,208.1170250000141,,,,,,,,,,208.10310780000873,208.1170250000141,208.1170250000141,208.3000705000013,208.31661820001318,,210.10183610001695,None,1,,,000009,001,2024-10-09_12h34.12.988,cpt_test,2024.2.2,60.23617398712372,2024-10-09 12h34.40.292021 -0600,
31,F,0,None,30,30,0,None,1,,,0,30,30,30,210.12176760000875,,,,,,,,,,210.10205449999194,210.12176760000875,210.12176760000875,210.3151138999965,210.33168590001878,,212.1167826000019,None,1,,,000009,001,2024-10-09_12h34.12.988,cpt_test,2024.2.2,60.23617398712372,2024-10-09 12h34.40.292021 -0600,
32,M,0,None,31,31,0,None,1,,,0,31,31,31,212.13605000000098,,,,,,,,,,212.11696459999075,212.13605000000098,212.13605000000098,212.31347379999352,212.3463155000063,,214.1151039999968,None,1,,,000009,001,2024-10-09_12h34.12.988,cpt_test,2024.2.2,60.23617398712372,2024-10-09 12h34.40.292021 -0600,
33,T,0,None,32,32,0,None,1,,,0,32,32,32,214.1286492999934,,,,,,,,,,214.1153018999903,214.1286492999934,214.1286492999934,214.31183459999738,214.32833849999588,,216.11276469999575,None,1,,,000009,001,2024-10-09_12h34.12.988,cpt_test,2024.2.2,60.23617398712372,2024-10-09 12h34.40.292021 -0600,
34,A,0,None,33,33,0,None,1,,,0,33,33,33,216.1270974999934,,,,,,,,,,216.11291530000744,216.1270974999934,216.1270974999934,216.3101442999905,216.32673840000643,,218.1119571000163,None,1,,,000009,001,2024-10-09_12h34.12.988,cpt_test,2024.2.2,60.23617398712372,2024-10-09 12h34.40.292021 -0600,
35,E,0,None,34,34,0,None,1,,,0,34,34,34,218.12995780000347,,,,,,,,,,218.11215960001573,218.12995780000347,218.12995780000347,218.30874680000124,218.3415229000093,,220.1093579000153,None,1,,,000009,001,2024-10-09_12h34.12.988,cpt_test,2024.2.2,60.23617398712372,2024-10-09 12h34.40.292021 -0600,
36,X,1,x,35,35,0,x,1,0.409955799987074,0.19605810000211932,0,35,35,35,220.12390010000672,,,,,,,,,,220.10950779999257,220.12390010000672,220.12390010000672,220.30714680001256,220.32322630001,,222.10868080001092,x,1,0.409955799987074,0.19605810000211932,000009,001,2024-10-09_12h34.12.988,cpt_test,2024.2.2,60.23617398712372,2024-10-09 12h34.40.292021 -0600,
37,A,0,None,36,36,0,None,1,,,0,36,36,36,222.1222112000105,,,,,,,,,,222.10887389999698,222.1222112000105,222.1222112000105,222.3054580000171,222.32179610000458,,224.1061003000068,None,1,,,000009,001,2024-10-09_12h34.12.988,cpt_test,2024.2.2,60.23617398712372,2024-10-09 12h34.40.292021 -0600,
38,S,0,None,37,37,0,None,1,,,0,37,37,37,224.12079250000534,,,,,,,,,,224.1062460000103,224.12079250000534,224.12079250000534,224.30406590001076,224.32017350001843,,226.10465799999656,None,1,,,000009,001,2024-10-09_12h34.12.988,cpt_test,2024.2.2,60.23617398712372,2024-10-09 12h34.40.292021 -0600,
39,U,0,None,38,38,0,None,1,,,0,38,38,38,226.12308530000155,,,,,,,,,,226.10481089999666,226.12308530000155,226.12308530000155,226.30211049999343,226.33520980001776,,228.10292450000998,None,1,,,000009,001,2024-10-09_12h34.12.988,cpt_test,2024.2.2,60.23617398712372,2024-10-09 12h34.40.292021 -0600,
40,U,0,None,39,39,0,None,1,,,0,39,39,39,228.1170998000016,,,,,,,,,,228.10309650001,228.1170998000016,228.1170998000016,228.3006172000023,228.31659299999592,,230.1012725000037,None,1,,,000009,001,2024-10-09_12h34.12.988,cpt_test,2024.2.2,60.23617398712372,2024-10-09 12h34.40.292021 -0600,
41,Q,0,None,40,40,0,None,1,,,0,40,40,40,230.1191295000026,,,,,,,,,,230.10142079999787,230.1191295000026,230.1191295000026,230.315711800009,230.33187920000637,,232.11637030000566,None,1,,,000009,001,2024-10-09_12h34.12.988,cpt_test,2024.2.2,60.23617398712372,2024-10-09 12h34.40.292021 -0600,
42,E,0,None,41,41,0,None,1,,,0,41,41,41,232.13067290000618,,,,,,,,,,232.11653639998985,232.13067290000618,232.13067290000618,232.31550679999054,232.332828899991,,234.11472149999463,None,1,,,000009,001,2024-10-09_12h34.12.988,cpt_test,2024.2.2,60.23617398712372,2024-10-09 12h34.40.292021 -0600,
43,B,0,None,42,42,0,None,1,,,0,42,42,42,234.13344830001006,,,,,,,,,,234.1148902999994,234.13344830001006,234.13344830001006,234.31207820001873,234.34513920001336,,236.11316420001094,None,1,,,000009,001,2024-10-09_12h34.12.988,cpt_test,2024.2.2,60.23617398712372,2024-10-09 12h34.40.292021 -0600,
44,O,0,None,43,43,0,None,1,,,0,43,43,43,236.1275363000168,,,,,,,,,,236.11332170001697,236.1275363000168,236.1275363000168,236.31072370000766,236.32677260000492,,238.1114275,None,1,,,000009,001,2024-10-09_12h34.12.988,cpt_test,2024.2.2,60.23617398712372,2024-10-09 12h34.40.292021 -0600,
45,E,0,None,44,44,0,None,1,,,0,44,44,44,238.12550439999904,,,,,,,,,,238.11157680000179,238.12550439999904,238.12550439999904,238.3089786999917,238.32534840001608,,240.1103371999925,None,1,,,000009,001,2024-10-09_12h34.12.988,cpt_test,2024.2.2,60.23617398712372,2024-10-09 12h34.40.292021 -0600,
46,F,0,None,45,45,0,None,1,,,0,45,45,45,240.1238263999985,,,,,,,,,,240.11053500001435,240.1238263999985,240.1238263999985,240.3072802000097,240.32370909999008,,242.109082400013,None,1,,,000009,001,2024-10-09_12h34.12.988,cpt_test,2024.2.2,60.23617398712372,2024-10-09 12h34.40.292021 -0600,
47,V,0,None,46,46,0,None,1,,,0,46,46,46,242.12892210000427,,,,,,,,,,242.10927570000058,242.12892210000427,242.12892210000427,242.30554110000958,242.33846260001883,,244.10691370000131,None,1,,,000009,001,2024-10-09_12h34.12.988,cpt_test,2024.2.2,60.23617398712372,2024-10-09 12h34.40.292021 -0600,
48,X,1,x,47,47,0,x,1,0.39494790000026114,0.205860499991104,0,47,47,47,244.12087450001854,,,,,,,,,,244.1070813999977,244.12087450001854,244.12087450001854,244.3040062999935,244.32042239999282,,246.10525729999063,x,1,0.39494790000026114,0.205860499991104,000009,001,2024-10-09_12h34.12.988,cpt_test,2024.2.2,60.23617398712372,2024-10-09 12h34.40.292021 -0600,
49,X,1,x,48,48,0,x,1,0.32806450000498444,0.20532490001642145,0,48,48,48,246.1189871999959,,,,,,,,,,246.10544579999987,246.1189871999959,246.1189871999959,246.30239230001462,246.31858610000927,,248.10376950001228,x,1,0.32806450000498444,0.20532490001642145,000009,001,2024-10-09_12h34.12.988,cpt_test,2024.2.2,60.23617398712372,2024-10-09 12h34.40.292021 -0600,
50,C,0,None,49,49,0,None,1,,,0,49,49,49,248.12213030000567,,,,,,,,,,248.103937900014,248.12213030000567,248.12213030000567,248.30084239999996,248.33366480001132,,250.1016908000165,None,1,,,000009,001,2024-10-09_12h34.12.988,cpt_test,2024.2.2,60.23617398712372,2024-10-09 12h34.40.292021 -0600,
51,M,0,None,50,50,0,None,1,,,0,50,50,50,250.1162811999966,,,,,,,,,,250.1018541000085,250.1162811999966,250.1162811999966,250.31521719999728,250.31521719999728,,252.117270799994,None,1,,,000009,001,2024-10-09_12h34.12.988,cpt_test,2024.2.2,60.23617398712372,2024-10-09 12h34.40.292021 -0600,
52,D,0,None,51,51,0,None,1,,,0,51,51,51,252.13068840000778,,,,,,,,,,252.1174372000096,252.13068840000778,252.13068840000778,252.3141997999919,252.33040890001575,,254.11481840000488,None,1,,,000009,001,2024-10-09_12h34.12.988,cpt_test,2024.2.2,60.23617398712372,2024-10-09 12h34.40.292021 -0600,
53,X,1,x,52,52,0,x,1,0.41778240000712685,0.2159752000006847,0,52,52,52,254.1290302000125,,,,,,,,,,254.1149657999922,254.1290302000125,254.1290302000125,254.312526099995,254.32866610001656,,256.1134308000037,x,1,0.41778240000712685,0.2159752000006847,000009,001,2024-10-09_12h34.12.988,cpt_test,2024.2.2,60.23617398712372,2024-10-09 12h34.40.292021 -0600,
54,K,0,None,53,53,0,None,1,,,0,53,53,53,256.1316257000144,,,,,,,,,,256.1135876000044,256.1316257000144,256.1316257000144,256.310773300007,256.34394799999427,,258.1116803000041,None,1,,,000009,001,2024-10-09_12h34.12.988,cpt_test,2024.2.2,60.23617398712372,2024-10-09 12h34.40.292021 -0600,
55,X,1,x,54,54,0,x,1,0.4296382000029553,0.20474049999029376,0,54,54,54,258.12605880000046,,,,,,,,,,258.1118407000031,258.12605880000046,258.12605880000046,258.30923790001543,258.32542249999824,,260.11155570001574,x,1,0.4296382000029553,0.20474049999029376,000009,001,2024-10-09_12h34.12.988,cpt_test,2024.2.2,60.23617398712372,2024-10-09 12h34.40.292021 -0600,
56,N,0,None,55,55,0,None,1,,,0,55,55,55,260.1341064000153,,,,,,,,,,260.11180770001374,260.1341064000153,260.1341064000153,260.30868990000454,260.34029560000636,,262.1078558000154,None,1,,,000009,001,2024-10-09_12h34.12.988,cpt_test,2024.2.2,60.23617398712372,2024-10-09 12h34.40.292021 -0600,
57,M,0,None,56,56,0,None,1,,,0,56,56,56,262.1224024000112,,,,,,,,,,262.10800159999053,262.1224024000112,262.1224024000112,262.30630729999393,262.3222761999932,,264.1070469999977,None,1,,,000009,001,2024-10-09_12h34.12.988,cpt_test,2024.2.2,60.23617398712372,2024-10-09 12h34.40.292021 -0600,
58,X,1,x,57,57,0,x,1,0.42917319998377934,0.20858669999870472,0,57,57,57,264.12095780001255,,,,,,,,,,264.10724919999484,264.12095780001255,264.12095780001255,264.30416580001474,264.3203565000149,,266.1050268000108,x,1,0.42917319998377934,0.20858669999870472,000009,001,2024-10-09_12h34.12.988,cpt_test,2024.2.2,60.23617398712372,2024-10-09 12h34.40.292021 -0600,
59,F,0,None,58,58,0,None,1,,,0,58,58,58,266.1193474000029,,,,,,,,,,266.10519510001177,266.1193474000029,266.1193474000029,266.30243569999584,266.31883629999356,,268.10403970000334,None,1,,,000009,001,2024-10-09_12h34.12.988,cpt_test,2024.2.2,60.23617398712372,2024-10-09 12h34.40.292021 -0600,
60,A,0,None,59,59,0,None,1,,,0,59,59,59,268.1175251000095,,,,,,,,,,268.10423399999854,268.1175251000095,268.1175251000095,268.30090609999024,268.3171959000174,,270.10235150001245,None,1,,,000009,001,2024-10-09_12h34.12.988,cpt_test,2024.2.2,60.23617398712372,2024-10-09 12h34.40.292021 -0600,
61,X,1,x,60,60,0,x,1,0.42291670001577586,0.18807259999448434,0,60,60,60,270.1160794000025,,,,,,,,,,270.1025315000152,270.1160794000025,270.1160794000025,270.31553680001525,270.31553680001525,,272.1007072000066,x,1,0.42291670001577586,0.18807259999448434,000009,001,2024-10-09_12h34.12.988,cpt_test,2024.2.2,60.23617398712372,2024-10-09 12h34.40.292021 -0600,
62,V,0,None,61,61,0,None,1,,,0,61,61,61,272.11433390001184,,,,,,,,,,272.10091169999214,272.11433390001184,272.11433390001184,272.3137158000027,272.3137158000027,,274.11560190000455,None,1,,,000009,001,2024-10-09_12h34.12.988,cpt_test,2024.2.2,60.23617398712372,2024-10-09 12h34.40.292021 -0600,
63,U,0,None,62,62,0,None,1,,,0,62,62,62,274.1296801000135,,,,,,,,,,274.1157768999983,274.1296801000135,274.1296801000135,274.3126242000144,274.3287615000154,,276.11362570000347,None,1,,,000009,001,2024-10-09_12h34.12.988,cpt_test,2024.2.2,60.23617398712372,2024-10-09 12h34.40.292021 -0600,
64,M,0,None,63,63,0,None,1,,,0,63,63,63,276.12757370001054,,,,,,,,,,276.1137818999996,276.12757370001054,276.12757370001054,276.3107474000135,276.32743999999366,,278.11175770001137,None,1,,,000009,001,2024-10-09_12h34.12.988,cpt_test,2024.2.2,60.23617398712372,2024-10-09 12h34.40.292021 -0600,
65,X,1,x,64,64,0,x,1,0.4159386999963317,0.1898042999964673,0,64,64,64,278.1260203999991,,,,,,,,,,278.1119079999917,278.1260203999991,278.1260203999991,278.3093899000087,278.32576400000835,,280.1104115000053,x,1,0.4159386999963317,0.1898042999964673,000009,001,2024-10-09_12h34.12.988,cpt_test,2024.2.2,60.23617398712372,2024-10-09 12h34.40.292021 -0600,
66,A,0,None,65,65,0,None,1,,,0,65,65,65,280.1246511999925,,,,,,,,,,280.11058209999464,280.1246511999925,280.1246511999925,280.30764509999426,280.32395630000974,,282.1087887000176,None,1,,,000009,001,2024-10-09_12h34.12.988,cpt_test,2024.2.2,60.23617398712372,2024-10-09 12h34.40.292021 -0600,
67,N,0,None,66,66,0,None,1,,,0,66,66,66,282.1228929999925,,,,,,,,,,282.108957199991,282.1228929999925,282.1228929999925,282.30606970001827,282.3221693999949,,284.10691960001714,None,1,,,000009,001,2024-10-09_12h34.12.988,cpt_test,2024.2.2,60.23617398712372,2024-10-09 12h34.40.292021 -0600,
68,H,0,None,67,67,0,None,1,,,0,67,67,67,284.1264477999939,,,,,,,,,,284.10707450000336,284.1264477999939,284.1264477999939,284.3045110999956,284.33715979999397,,286.10516510001617,None,1,,,000009,001,2024-10-09_12h34.12.988,cpt_test,2024.2.2,60.23617398712372,2024-10-09 12h34.40.292021 -0600,
69,A,0,None,68,68,0,None,1,,,0,68,68,68,286.11966260001645,,,,,,,,,,286.10533280001255,286.11966260001645,286.11966260001645,286.3025888999982,286.31912020000163,,288.10412120001274,None,1,,,000009,001,2024-10-09_12h34.12.988,cpt_test,2024.2.2,60.23617398712372,2024-10-09 12h34.40.292021 -0600,
70,X,1,x,69,69,0,x,1,0.420385500008706,0.18182399999932386,0,69,69,69,288.11800570000196,,,,,,,,,,288.10430880001513,288.11800570000196,288.11800570000196,288.30096950000734,288.31748630001675,,290.10184879999724,x,1,0.420385500008706,0.18182399999932386,000009,001,2024-10-09_12h34.12.988,cpt_test,2024.2.2,60.23617398712372,2024-10-09 12h34.40.292021 -0600,
71,F,0,None,70,70,0,None,1,,,0,70,70,70,290.116354400001,,,,,,,,,,290.10201619999134,290.116354400001,290.116354400001,290.2993921000161,290.3157704999903,292.11410930001875,292.11692659999244,None,1,,,000009,001,2024-10-09_12h34.12.988,cpt_test,2024.2.2,60.23617398712372,2024-10-09 12h34.40.292021 -0600,
72,N,0,None,71,71,0,None,1,,,0,71,71,71,292.1312731000071,,,,,,,,,,292.1170945999911,292.1312731000071,292.1312731000071,292.31458649999695,292.3307802999916,,294.11595949999173,None,1,,,000009,001,2024-10-09_12h34.12.988,cpt_test,2024.2.2,60.23617398712372,2024-10-09 12h34.40.292021 -0600,
73,K,0,None,72,72,0,None,1,,,0,72,72,72,294.129668700014,,,,,,,,,,294.11614260001807,294.129668700014,294.129668700014,294.3128443000023,294.32929200000945,,296.1143783000007,None,1,,,000009,001,2024-10-09_12h34.12.988,cpt_test,2024.2.2,60.23617398712372,2024-10-09 12h34.40.292021 -0600,
74,Y,0,None,73,73,0,None,1,,,0,73,73,73,296.128036900016,,,,,,,,,,296.11457160001737,296.128036900016,296.128036900016,296.31099950001226,296.32760250000865,,298.1127802999981,None,1,,,000009,001,2024-10-09_12h34.12.988,cpt_test,2024.2.2,60.23617398712372,2024-10-09 12h34.40.292021 -0600,
75,Y,0,None,74,74,0,None,1,,,0,74,74,74,298.12613049999345,,,,,,,,,,298.11296550001134,298.12613049999345,298.12613049999345,298.30912580000586,298.32564520000597,,300.1104250999924,None,1,,,000009,001,2024-10-09_12h34.12.988,cpt_test,2024.2.2,60.23617398712372,2024-10-09 12h34.40.292021 -0600,
76,R,0,None,75,75,0,None,1,,,0,75,75,75,300.1245837000024,,,,,,,,,,300.1105643000046,300.1245837000024,300.1245837000024,300.3079621999932,300.32426110000233,,302.1094311999914,None,1,,,000009,001,2024-10-09_12h34.12.988,cpt_test,2024.2.2,60.23617398712372,2024-10-09 12h34.40.292021 -0600,
77,X,1,x,76,76,0,x,1,0.3660000000090804,0.19470439999713562,0,76,76,76,302.12283199999365,,,,,,,,,,302.1096261999919,302.12283199999365,302.12283199999365,302.30596860000514,302.3224843000062,,304.1073660000111,x,1,0.3660000000090804,0.19470439999713562,000009,001,2024-10-09_12h34.12.988,cpt_test,2024.2.2,60.23617398712372,2024-10-09 12h34.40.292021 -0600,
78,R,0,None,77,77,0,None,1,,,0,77,77,77,304.12154819999705,,,,,,,,,,304.1075511999952,304.12154819999705,304.12154819999705,304.30430210000486,304.32064950000495,,306.10527120000916,None,1,,,000009,001,2024-10-09_12h34.12.988,cpt_test,2024.2.2,60.23617398712372,2024-10-09 12h34.40.292021 -0600,
79,F,0,None,78,78,0,None,1,,,0,78,78,78,306.11983720000717,,,,,,,,,,306.1054235000047,306.11983720000717,306.11983720000717,306.30301289999625,306.31934010001714,,308.1038797000074,None,1,,,000009,001,2024-10-09_12h34.12.988,cpt_test,2024.2.2,60.23617398712372,2024-10-09 12h34.40.292021 -0600,
80,K,0,None,79,79,0,None,1,,,0,79,79,79,308.1181187000184,,,,,,,,,,308.10403630000656,308.1181187000184,308.1181187000184,308.30135860000155,308.3176553999947,310.09942869999213,310.1019524000003,None,1,,,000009,001,2024-10-09_12h34.12.988,cpt_test,2024.2.2,60.23617398712372,2024-10-09 12h34.40.292021 -0600,
81,O,0,None,80,80,0,None,1,,,0,80,80,80,310.11633409999195,,,,,,,,,,310.1020916000125,310.11633409999195,310.11633409999195,310.2995535999944,310.3160846999963,,312.1006478999916,None,1,,,000009,001,2024-10-09_12h34.12.988,cpt_test,2024.2.2,60.23617398712372,2024-10-09 12h34.40.292021 -0600,
82,F,0,None,81,81,0,None,1,,,0,81,81,81,312.11482469999464,,,,,,,,,,312.1007929999905,312.11482469999464,312.11482469999464,312.31420900000376,312.31420900000376,,314.1152909999946,None,1,,,000009,001,2024-10-09_12h34.12.988,cpt_test,2024.2.2,60.23617398712372,2024-10-09 12h34.40.292021 -0600,
83,F,0,None,82,82,0,None,1,,,0,82,82,82,314.12990870000795,,,,,,,,,,314.11544709999,314.12990870000795,314.12990870000795,314.31285380001646,314.3293077000126,,316.1136627999949,None,1,,,000009,001,2024-10-09_12h34.12.988,cpt_test,2024.2.2,60.23617398712372,2024-10-09 12h34.40.292021 -0600,
84,W,0,None,83,83,0,None,1,,,0,83,83,83,316.13355850000517,,,,,,,,,,316.1138204000017,316.13355850000517,316.13355850000517,316.31122689999756,316.3440705999965,,318.1124182000058,None,1,,,000009,001,2024-10-09_12h34.12.988,cpt_test,2024.2.2,60.23617398712372,2024-10-09 12h34.40.292021 -0600,
85,X,1,x,84,84,0,x,1,0.5008863999973983,0.17219049998675473,0,84,84,84,318.126262100006,,,,,,,,,,318.1125762000156,318.126262100006,318.126262100006,318.3094109999947,318.3262159000151,,320.11051090000547,x,1,0.5008863999973983,0.17219049998675473,000009,001,2024-10-09_12h34.12.988,cpt_test,2024.2.2,60.23617398712372,2024-10-09 12h34.40.292021 -0600,
86,J,0,None,85,85,0,None,1,,,0,85,85,85,320.1246852000186,,,,,,,,,,320.11065950000193,320.1246852000186,320.1246852000186,320.30789840000216,320.32432000001427,,322.10889390000375,None,1,,,000009,001,2024-10-09_12h34.12.988,cpt_test,2024.2.2,60.23617398712372,2024-10-09 12h34.40.292021 -0600,
87,N,0,None,86,86,0,None,1,,,0,86,86,86,322.1232644999982,,,,,,,,,,322.1090640000184,322.1232644999982,322.1232644999982,322.3065212999936,322.3227055000025,,324.107285200007,None,1,,,000009,001,2024-10-09_12h34.12.988,cpt_test,2024.2.2,60.23617398712372,2024-10-09 12h34.40.292021 -0600,
88,X,1,x,87,87,0,x,1,0.43736729997908697,0.17361040000105277,0,87,87,87,324.12130030000117,,,,,,,,,,324.107451399992,324.12130030000117,324.12130030000117,324.3044745000079,324.32119180000154,,326.1063225000107,x,1,0.43736729997908697,0.17361040000105277,000009,001,2024-10-09_12h34.12.988,cpt_test,2024.2.2,60.23617398712372,2024-10-09 12h34.40.292021 -0600,
89,T,0,None,88,88,0,None,1,,,0,88,88,88,326.1199342000182,,,,,,,,,,326.10651589999907,326.1199342000182,326.1199342000182,326.302898599999,326.31934809999075,,328.10459930001525,None,1,,,000009,001,2024-10-09_12h34.12.988,cpt_test,2024.2.2,60.23617398712372,2024-10-09 12h34.40.292021 -0600,
90,I,0,None,89,89,0,None,1,,,0,89,89,89,328.11818499999936,,,,,,,,,,328.10477520001587,328.11818499999936,328.11818499999936,328.3012502999918,328.3178687999898,,330.1023663000087,None,1,,,000009,001,2024-10-09_12h34.12.988,cpt_test,2024.2.2,60.23617398712372,2024-10-09 12h34.40.292021 -0600,
91,P,0,None,90,90,0,None,1,,,0,90,90,90,330.1163308999967,,,,,,,,,,330.1025079000101,330.1163308999967,330.1163308999967,330.29980649999925,330.31618310001795,,332.1011872999952,None,1,,,000009,001,2024-10-09_12h34.12.988,cpt_test,2024.2.2,60.23617398712372,2024-10-09 12h34.40.292021 -0600,
92,X,1,x,91,91,0,x,1,0.4173597999906633,0.2147636000008788,0,91,91,91,332.1152078000014,,,,,,,,,,332.1013254999998,332.1152078000014,332.1152078000014,332.3164029000036,332.3164029000036,,334.1156859000039,x,1,0.4173597999906633,0.2147636000008788,000009,001,2024-10-09_12h34.12.988,cpt_test,2024.2.2,60.23617398712372,2024-10-09 12h34.40.292021 -0600,
93,B,0,None,92,92,0,None,1,,,0,92,92,92,334.12985250001657,,,,,,,,,,334.1158465000044,334.12985250001657,334.12985250001657,334.31327430001693,334.32931140001165,,336.1144054000033,None,1,,,000009,001,2024-10-09_12h34.12.988,cpt_test,2024.2.2,60.23617398712372,2024-10-09 12h34.40.292021 -0600,
94,M,0,None,93,93,0,None,1,,,0,93,93,93,336.12845750001725,,,,,,,,,,336.1145824000123,336.12845750001725,336.12845750001725,336.31172270001844,336.32776650000596,,338.1127848000033,None,1,,,000009,001,2024-10-09_12h34.12.988,cpt_test,2024.2.2,60.23617398712372,2024-10-09 12h34.40.292021 -0600,
95,B,0,None,94,94,0,None,1,,,0,94,94,94,338.1269591000164,,,,,,,,,,338.11296880000737,338.1269591000164,338.1269591000164,338.30993799999123,338.3260280000104,,340.1114365000103,None,1,,,000009,001,2024-10-09_12h34.12.988,cpt_test,2024.2.2,60.23617398712372,2024-10-09 12h34.40.292021 -0600,
96,I,0,None,95,95,0,None,1,,,0,95,95,95,340.1249725999951,,,,,,,,,,340.1116153000039,340.1249725999951,340.1249725999951,340.3079379000119,340.32452049999847,,342.10905850000563,None,1,,,000009,001,2024-10-09_12h34.12.988,cpt_test,2024.2.2,60.23617398712372,2024-10-09 12h34.40.292021 -0600,
97,X,1,x,96,96,0,x,1,0.39116090000607073,0.18184279999695718,0,96,96,96,342.123133999994,,,,,,,,,,342.1092064999975,342.123133999994,342.123133999994,342.30665859999135,342.32285250001587,,344.10761110001476,x,1,0.39116090000607073,0.18184279999695718,000009,001,2024-10-09_12h34.12.988,cpt_test,2024.2.2,60.23617398712372,2024-10-09 12h34.40.292021 -0600,
98,J,0,None,97,97,0,None,1,,,0,97,97,97,344.1215804000094,,,,,,,,,,344.1077699000016,344.1215804000094,344.1215804000094,344.3052255999937,344.32272990001366,,346.1069427000184,None,1,,,000009,001,2024-10-09_12h34.12.988,cpt_test,2024.2.2,60.23617398712372,2024-10-09 12h34.40.292021 -0600,
99,X,1,x,98,98,0,x,1,0.4516863999888301,0.22785429999930784,0,98,98,98,346.12005900000804,,,,,,,,,,346.1071498999954,346.12005900000804,346.12005900000804,346.3033739000093,346.3194959000102,,348.10453149999375,x,1,0.4516863999888301,0.22785429999930784,000009,001,2024-10-09_12h34.12.988,cpt_test,2024.2.2,60.23617398712372,2024-10-09 12h34.40.292021 -0600,
100,U,0,None,99,99,0,None,1,,,0,99,99,99,348.1182950999937,,,,,,,,,,348.1047186999931,348.1182950999937,348.1182950999937,348.30144629999995,348.3177348000172,,350.1052419000189,None,1,,,000009,001,2024-10-09_12h34.12.988,cpt_test,2024.2.2,60.23617398712372,2024-10-09 12h34.40.292021 -0600,
101,D,0,None,100,100,0,None,1,,,0,100,100,100,350.1178441999946,,,,,,,,,,350.10554370001773,350.1178441999946,350.1178441999946,350.30008570000064,350.33281769999303,,352.1026694000175,None,1,,,000009,001,2024-10-09_12h34.12.988,cpt_test,2024.2.2,60.23617398712372,2024-10-09 12h34.40.292021 -0600,
102,X,1,x,101,101,0,x,1,0.38336120001622476,0.21325629999046214,0,101,101,101,352.11497009999584,,,,,,,,,,352.1029000999988,352.11497009999584,352.11497009999584,352.31473549999646,352.31473549999646,,354.11574569999357,x,1,0.38336120001622476,0.21325629999046214,000009,001,2024-10-09_12h34.12.988,cpt_test,2024.2.2,60.23617398712372,2024-10-09 12h34.40.292021 -0600,
103,X,1,x,102,102,0,x,1,0.3713796999945771,0.21434410000802018,0,102,102,102,354.1303830000106,,,,,,,,,,354.1158897000132,354.1303830000106,354.1303830000106,354.313392400014,354.3295949000167,,356.1137462000188,x,1,0.3713796999945771,0.21434410000802018,000009,001,2024-10-09_12h34.12.988,cpt_test,2024.2.2,60.23617398712372,2024-10-09 12h34.40.292021 -0600,
104,N,0,None,103,103,0,None,1,,,0,103,103,103,356.12908410001546,,,,,,,,,,356.11389770000824,356.12908410001546,356.12908410001546,356.3137080000015,356.32792440001504,,358.11266230000183,None,1,,,000009,001,2024-10-09_12h34.12.988,cpt_test,2024.2.2,60.23617398712372,2024-10-09 12h34.40.292021 -0600,
105,U,0,None,104,104,0,None,1,,,0,104,104,104,358.12707099999534,,,,,,,,,,358.1128141999943,358.12707099999534,358.12707099999534,358.30955740000354,358.32595779999974,,360.11096580000594,None,1,,,000009,001,2024-10-09_12h34.12.988,cpt_test,2024.2.2,60.23617398712372,2024-10-09 12h34.40.292021 -0600,
106,T,0,None,105,105,0,None,1,,,0,105,105,105,360.12537809999776,,,,,,,,,,360.11111299999175,360.12537809999776,360.12537809999776,360.30821869999636,360.32478550000815,,362.1093017999956,None,1,,,000009,001,2024-10-09_12h34.12.988,cpt_test,2024.2.2,60.23617398712372,2024-10-09 12h34.40.292021 -0600,
107,W,0,None,106,106,0,None,1,,,0,106,106,106,362.1239817000169,,,,,,,,,,362.1094642000098,362.1239817000169,362.1239817000169,362.30700950001483,362.3229588000104,,364.10831820001476,None,1,,,000009,001,2024-10-09_12h34.12.988,cpt_test,2024.2.2,60.23617398712372,2024-10-09 12h34.40.292021 -0600,
108,N,0,None,107,107,0,None,1,,,0,107,107,107,364.1221951000043,,,,,,,,,,364.1085175999906,364.1221951000043,364.1221951000043,364.3051203000068,364.3213378000073,,366.1057983000064,None,1,,,000009,001,2024-10-09_12h34.12.988,cpt_test,2024.2.2,60.23617398712372,2024-10-09 12h34.40.292021 -0600,
109,R,0,None,108,108,0,None,1,,,0,108,108,108,366.1204633000016,,,,,,,,,,366.10594030001084,366.1204633000016,366.1204633000016,366.30367680001655,366.31982880001306,368.10184879999724,368.10443680000026,None,1,,,000009,001,2024-10-09_12h34.12.988,cpt_test,2024.2.2,60.23617398712372,2024-10-09 12h34.40.292021 -0600,
110,X,1,x,109,109,0,x,1,0.40742979999049567,0.20341410001856275,0,109,109,109,368.11866189999273,,,,,,,,,,368.10457550000865,368.11866189999273,368.11866189999273,368.3018577999901,368.31806869999855,,370.1025760000048,x,1,0.40742979999049567,0.20341410001856275,000009,001,2024-10-09_12h34.12.988,cpt_test,2024.2.2,60.23617398712372,2024-10-09 12h34.40.292021 -0600,
111,A,0,None,110,110,0,None,1,,,0,110,110,110,370.11697860001004,,,,,,,,,,370.1027238999959,370.11697860001004,370.11697860001004,370.2999008000188,370.31625530001475,,372.1016137000115,None,1,,,000009,001,2024-10-09_12h34.12.988,cpt_test,2024.2.2,60.23617398712372,2024-10-09 12h34.40.292021 -0600,
112,X,1,x,111,111,0,x,1,0.40761599998222664,0.20034250000026077,0,111,111,111,372.11534290001146,,,,,,,,,,372.1017936000135,372.11534290001146,372.11534290001146,372.31468460001634,372.31468460001634,,374.11718140001176,x,1,0.40761599998222664,0.20034250000026077,000009,001,2024-10-09_12h34.12.988,cpt_test,2024.2.2,60.23617398712372,2024-10-09 12h34.40.292021 -0600,
113,G,0,None,112,112,0,None,1,,,0,112,112,112,374.13072159999865,,,,,,,,,,374.11738790001255,374.13072159999865,374.13072159999865,374.3135936000035,374.3297200000088,,376.11415199999465,None,1,,,000009,001,2024-10-09_12h34.12.988,cpt_test,2024.2.2,60.23617398712372,2024-10-09 12h34.40.292021 -0600,
114,O,0,None,113,113,0,None,1,,,0,113,113,113,376.1287997000036,,,,,,,,,,376.1142974999966,376.1287997000036,376.1287997000036,376.31177160001243,376.3281094999984,,378.11315620000823,None,1,,,000009,001,2024-10-09_12h34.12.988,cpt_test,2024.2.2,60.23617398712372,2024-10-09 12h34.40.292021 -0600,
115,U,0,None,114,114,0,None,1,,,0,114,114,114,378.12691630001063,,,,,,,,,,378.1133314000035,378.12691630001063,378.12691630001063,378.31036719999975,378.32671710001887,,380.11111140000867,None,1,,,000009,001,2024-10-09_12h34.12.988,cpt_test,2024.2.2,60.23617398712372,2024-10-09 12h34.40.292021 -0600,
116,X,1,x,115,115,0,x,1,0.4348341000149958,0.20639809998101555,0,115,115,115,380.12519290001364,,,,,,,,,,380.11124990001554,380.12519290001364,380.12519290001364,380.3088023000164,380.3248137999908,,382.1095609999902,x,1,0.4348341000149958,0.20639809998101555,000009,001,2024-10-09_12h34.12.988,cpt_test,2024.2.2,60.23617398712372,2024-10-09 12h34.40.292021 -0600,
117,X,1,x,116,116,0,x,1,0.42200329998740926,0.20082570001250133,0,116,116,116,382.1239370999974,,,,,,,,,,382.10972110001603,382.1239370999974,382.1239370999974,382.30693049999536,382.3233578999934,,384.1078886000032,x,1,0.42200329998740926,0.20082570001250133,000009,001,2024-10-09_12h34.12.988,cpt_test,2024.2.2,60.23617398712372,2024-10-09 12h34.40.292021 -0600,
118,C,0,None,117,117,0,None,1,,,0,117,117,117,384.12211510000634,,,,,,,,,,384.1080381000065,384.12211510000634,384.12211510000634,384.3053748999955,384.32174099999247,,386.1065489000175,None,1,,,000009,001,2024-10-09_12h34.12.988,cpt_test,2024.2.2,60.23617398712372,2024-10-09 12h34.40.292021 -0600,
119,A,0,None,118,118,0,None,1,,,0,118,118,118,386.1205653999932,,,,,,,,,,386.1067486999964,386.1205653999932,386.1205653999932,386.30335259999265,386.3199360000144,,388.10473130000173,None,1,,,000009,001,2024-10-09_12h34.12.988,cpt_test,2024.2.2,60.23617398712372,2024-10-09 12h34.40.292021 -0600,
120,X,1,x,119,119,0,x,1,0.4202588000043761,0.21099739999044687,0,119,119,119,388.1190260000003,,,,,,,,,,388.10487300000386,388.1190260000003,388.1190260000003,388.3021326000162,388.3184215000074,,390.10289400001056,x,1,0.4202588000043761,0.21099739999044687,000009,001,2024-10-09_12h34.12.988,cpt_test,2024.2.2,60.23617398712372,2024-10-09 12h34.40.292021 -0600,
121,H,0,None,120,120,0,None,1,,,0,120,120,120,390.11746259999927,,,,,,,,,,390.1030385000049,390.11746259999927,390.11746259999927,390.3001348999969,390.31665349999093,,392.1019718000025,None,1,,,000009,001,2024-10-09_12h34.12.988,cpt_test,2024.2.2,60.23617398712372,2024-10-09 12h34.40.292021 -0600,
122,M,0,None,121,121,0,None,1,,,0,121,121,121,392.1164126000076,,,,,,,,,,392.1021379000158,392.1164126000076,392.1164126000076,392.3148640000145,392.3148640000145,,394.1165668000176,None,1,,,000009,001,2024-10-09_12h34.12.988,cpt_test,2024.2.2,60.23617398712372,2024-10-09 12h34.40.292021 -0600,
123,V,0,None,122,122,0,None,1,,,0,122,122,122,394.1304333000153,,,,,,,,,,394.1167234000168,394.1304333000153,394.1304333000153,394.31379119999474,394.32977919999394,,396.11442570001236,None,1,,,000009,001,2024-10-09_12h34.12.988,cpt_test,2024.2.2,60.23617398712372,2024-10-09 12h34.40.292021 -0600,
124,K,0,None,123,123,0,None,1,,,0,123,123,123,396.1291357000009,,,,,,,,,,396.1145744000096,396.1291357000009,396.1291357000009,396.3120801000041,396.328468599997,,398.11277070001233,None,1,,,000009,001,2024-10-09_12h34.12.988,cpt_test,2024.2.2,60.23617398712372,2024-10-09 12h34.40.292021 -0600,
125,G,0,None,124,124,0,None,1,,,0,124,124,124,398.12738560000435,,,,,,,,,,398.1129096999939,398.12738560000435,398.12738560000435,398.31050429999596,398.32681289999164,,400.11116530001163,None,1,,,000009,001,2024-10-09_12h34.12.988,cpt_test,2024.2.2,60.23617398712372,2024-10-09 12h34.40.292021 -0600,
126,A,0,None,125,125,0,None,1,,,0,125,125,125,400.12576799999806,,,,,,,,,,400.1113200999971,400.12576799999806,400.12576799999806,400.30882340000244,400.32506050000666,,402.1095196999959,None,1,,,000009,001,2024-10-09_12h34.12.988,cpt_test,2024.2.2,60.23617398712372,2024-10-09 12h34.40.292021 -0600,
127,X,1,x,126,126,0,x,1,0.39100599999073893,0.16878670000005513,0,126,126,126,402.1237836999935,,,,,,,,,,402.1096652999986,402.1237836999935,402.1237836999935,402.3072996000119,402.3236165000126,,404.1076527000114,x,1,0.39100599999073893,0.16878670000005513,000009,001,2024-10-09_12h34.12.988,cpt_test,2024.2.2,60.23617398712372,2024-10-09 12h34.40.292021 -0600,
128,N,0,None,127,127,0,None,1,,,0,127,127,127,404.1226195000054,,,,,,,,,,404.1077980000118,404.1226195000054,404.1226195000054,404.3055705000006,404.3220155000163,,406.1056726000097,None,1,,,000009,001,2024-10-09_12h34.12.988,cpt_test,2024.2.2,60.23617398712372,2024-10-09 12h34.40.292021 -0600,
129,Y,0,None,128,128,0,None,1,,,0,128,128,128,406.1214328999922,,,,,,,,,,406.1058353999979,406.1214328999922,406.1214328999922,406.3039996000007,406.32002410001587,,408.10471569999936,None,1,,,000009,001,2024-10-09_12h34.12.988,cpt_test,2024.2.2,60.23617398712372,2024-10-09 12h34.40.292021 -0600,
130,W,0,None,129,129,0,None,1,,,0,129,129,129,408.119333700015,,,,,,,,,,408.1048621000082,408.119333700015,408.119333700015,408.30251490001683,408.31844639999326,,410.1029324000119,None,1,,,000009,001,2024-10-09_12h34.12.988,cpt_test,2024.2.2,60.23617398712372,2024-10-09 12h34.40.292021 -0600,
131,L,0,None,130,130,0,None,1,,,0,130,130,130,410.11734860000433,,,,,,,,,,410.1030877000012,410.11734860000433,410.11734860000433,410.30037099999026,410.31696630001534,,412.1014981000044,None,1,,,000009,001,2024-10-09_12h34.12.988,cpt_test,2024.2.2,60.23617398712372,2024-10-09 12h34.40.292021 -0600,
132,F,0,None,131,131,0,None,1,,,0,131,131,131,412.1153387000086,,,,,,,,,,412.10164259999874,412.1153387000086,412.1153387000086,412.315182499995,412.315182499995,,414.116399999999,None,1,,,000009,001,2024-10-09_12h34.12.988,cpt_test,2024.2.2,60.23617398712372,2024-10-09 12h34.40.292021 -0600,
133,E,0,None,132,132,0,None,1,,,0,132,132,132,414.13088070001686,,,,,,,,,,414.11653980001574,414.13088070001686,414.13088070001686,414.314029000001,414.3301958999946,,416.114762400015,None,1,,,000009,001,2024-10-09_12h34.12.988,cpt_test,2024.2.2,60.23617398712372,2024-10-09 12h34.40.292021 -0600,
134,L,0,None,133,133,0,None,1,,,0,133,133,133,416.1290185000107,,,,,,,,,,416.11491010000464,416.1290185000107,416.1290185000107,416.3122779999976,416.3284171000123,,418.11321360000875,None,1,,,000009,001,2024-10-09_12h34.12.988,cpt_test,2024.2.2,60.23617398712372,2024-10-09 12h34.40.292021 -0600,
135,K,0,None,134,134,0,None,1,,,0,134,134,134,418.12751960000605,,,,,,,,,,418.11338690001867,418.12751960000605,418.12751960000605,418.31049730000086,418.3268017999944,,420.111856500007,None,1,,,000009,001,2024-10-09_12h34.12.988,cpt_test,2024.2.2,60.23617398712372,2024-10-09 12h34.40.292021 -0600,
136,Q,0,None,135,135,0,None,1,,,0,135,135,135,420.1255572999944,,,,,,,,,,420.11201909999363,420.1255572999944,420.1255572999944,420.3090463000117,420.3252514000051,,422.10993140001665,None,1,,,000009,001,2024-10-09_12h34.12.988,cpt_test,2024.2.2,60.23617398712372,2024-10-09 12h34.40.292021 -0600,
137,X,1,x,136,136,0,x,1,0.5323211000068113,0.17590709999785759,0,136,136,136,422.1243315000029,,,,,,,,,,422.11009050000575,422.1243315000029,422.1243315000029,422.30704200000037,422.32361809999566,,424.10850120001123,x,1,0.5323211000068113,0.17590709999785759,000009,001,2024-10-09_12h34.12.988,cpt_test,2024.2.2,60.23617398712372,2024-10-09 12h34.40.292021 -0600,
138,J,0,None,137,137,0,None,1,,,0,137,137,137,424.1224280000024,,,,,,,,,,424.1086661000154,424.1224280000024,424.1224280000024,424.30542859999696,424.32216609999887,,426.10648829999263,None,1,,,000009,001,2024-10-09_12h34.12.988,cpt_test,2024.2.2,60.23617398712372,2024-10-09 12h34.40.292021 -0600,
139,X,1,x,138,138,0,x,1,0.38413190000574104,0.20023429999127984,0,138,138,138,426.12076690001413,,,,,,,,,,426.10664010001346,426.12076690001413,426.12076690001413,426.3040780000156,426.32038950000424,,428.1046845999954,x,1,0.38413190000574104,0.20023429999127984,000009,001,2024-10-09_12h34.12.988,cpt_test,2024.2.2,60.23617398712372,2024-10-09 12h34.40.292021 -0600,
140,E,0,None,139,139,0,None,1,,,0,139,139,139,428.11932389999856,,,,,,,,,,428.1048444999906,428.11932389999856,428.11932389999856,428.30223210001714,428.3188366999966,,430.10364300000947,None,1,,,000009,001,2024-10-09_12h34.12.988,cpt_test,2024.2.2,60.23617398712372,2024-10-09 12h34.40.292021 -0600,
141,T,0,None,140,140,0,None,1,,,0,140,140,140,430.11737180000637,,,,,,,,,,430.10379910000484,430.11737180000637,430.11737180000637,430.30091750001884,430.31717640001443,,432.1016438000079,None,1,,,000009,001,2024-10-09_12h34.12.988,cpt_test,2024.2.2,60.23617398712372,2024-10-09 12h34.40.292021 -0600,
142,X,1,x,141,141,0,x,1,0.39867080000112765,0.16856770002050325,0,141,141,141,432.1160877000075,,,,,,,,,,432.101805000013,432.1160877000075,432.1160877000075,432.31527500000084,432.31527500000084,,434.1165661000123,x,1,0.39867080000112765,0.16856770002050325,000009,001,2024-10-09_12h34.12.988,cpt_test,2024.2.2,60.23617398712372,2024-10-09 12h34.40.292021 -0600,
143,Q,0,None,142,142,0,None,1,,,0,142,142,142,434.13090809999267,,,,,,,,,,434.11672300001374,434.13090809999267,434.13090809999267,434.3139478999947,434.3306528000103,,436.11494289999246,None,1,,,000009,001,2024-10-09_12h34.12.988,cpt_test,2024.2.2,60.23617398712372,2024-10-09 12h34.40.292021 -0600,
144,V,0,None,143,143,0,None,1,,,0,143,143,143,436.1294662000146,,,,,,,,,,436.11508940000203,436.1294662000146,436.1294662000146,436.3124622000032,436.3288704000006,,438.1131371000083,None,1,,,000009,001,2024-10-09_12h34.12.988,cpt_test,2024.2.2,60.23617398712372,2024-10-09 12h34.40.292021 -0600,
145,Y,0,None,144,144,0,None,1,,,0,144,144,144,438.1277440999984,,,,,,,,,,438.11328240000876,438.1277440999984,438.1277440999984,438.31056589999935,438.32702560001053,,440.1115470000077,None,1,,,000009,001,2024-10-09_12h34.12.988,cpt_test,2024.2.2,60.23617398712372,2024-10-09 12h34.40.292021 -0600,
146,O,0,None,145,145,0,None,1,,,0,145,145,145,440.1259731000173,,,,,,,,,,440.11169799999334,440.1259731000173,440.1259731000173,440.3090446999995,440.32570889999624,,442.10993810000946,None,1,,,000009,001,2024-10-09_12h34.12.988,cpt_test,2024.2.2,60.23617398712372,2024-10-09 12h34.40.292021 -0600,
147,T,0,None,146,146,0,None,1,,,0,146,146,146,442.1244654000038,,,,,,,,,,442.1100776999956,442.1244654000038,442.1244654000038,442.30758330001845,442.32390529999975,,444.10822300001746,None,1,,,000009,001,2024-10-09_12h34.12.988,cpt_test,2024.2.2,60.23617398712372,2024-10-09 12h34.40.292021 -0600,
148,X,1,x,147,147,0,x,1,0.4411641999904532,0.20000700000673532,0,147,147,147,444.1227846000111,,,,,,,,,,444.10837360000005,444.1227846000111,444.1227846000111,444.3059276000131,444.32207319999,,446.10668070000247,x,1,0.4411641999904532,0.20000700000673532,000009,001,2024-10-09_12h34.12.988,cpt_test,2024.2.2,60.23617398712372,2024-10-09 12h34.40.292021 -0600,
149,T,0,None,148,148,0,None,1,,,0,148,148,148,446.12125120000564,,,,,,,,,,446.10683989999234,446.12125120000564,446.12125120000564,446.3040120000078,446.3206254999968,,448.1053314000019,None,1,,,000009,001,2024-10-09_12h34.12.988,cpt_test,2024.2.2,60.23617398712372,2024-10-09 12h34.40.292021 -0600,
150,S,0,None,149,149,0,None,1,,,0,149,149,149,448.1195372999937,,,,,,,,,,448.1054931000108,448.1195372999937,448.1195372999937,448.30256090001785,448.31897940000636,,450.1037462000095,None,1,,,000009,001,2024-10-09_12h34.12.988,cpt_test,2024.2.2,60.23617398712372,2024-10-09 12h34.40.292021 -0600,
151,L,0,None,150,150,0,None,1,,,0,150,150,150,450.11792859999696,,,,,,,,,,450.1039001000172,450.11792859999696,450.11792859999696,450.30091330001596,450.31738459999906,,452.1016090000048,None,1,,,000009,001,2024-10-09_12h34.12.988,cpt_test,2024.2.2,60.23617398712372,2024-10-09 12h34.40.292021 -0600,
152,V,0,None,151,151,0,None,1,,,0,151,151,151,452.1162203999993,,,,,,,,,,452.10176469999715,452.1162203999993,452.1162203999993,452.3157550000178,452.3157550000178,,454.11699949999456,None,1,,,000009,001,2024-10-09_12h34.12.988,cpt_test,2024.2.2,60.23617398712372,2024-10-09 12h34.40.292021 -0600,
153,C,0,None,152,152,0,None,1,,,0,152,152,152,454.1313163000159,,,,,,,,,,454.11715530001675,454.1313163000159,454.1313163000159,454.3143781000108,454.3307684000174,,456.1151211000106,None,1,,,000009,001,2024-10-09_12h34.12.988,cpt_test,2024.2.2,60.23617398712372,2024-10-09 12h34.40.292021 -0600,
154,U,0,None,153,153,0,None,1,,,0,153,153,153,456.1296314999927,,,,,,,,,,456.1152887000062,456.1296314999927,456.1296314999927,456.3128607000108,456.3289769999974,,458.113293900009,None,1,,,000009,001,2024-10-09_12h34.12.988,cpt_test,2024.2.2,60.23617398712372,2024-10-09 12h34.40.292021 -0600,
155,X,1,x,154,154,0,x,1,0.3827506999950856,0.1996625000028871,0,154,154,154,458.12783760001184,,,,,,,,,,458.1134305000014,458.12783760001184,458.12783760001184,458.3109512999945,458.3274589999928,,460.11177869999665,x,1,0.3827506999950856,0.1996625000028871,000009,001,2024-10-09_12h34.12.988,cpt_test,2024.2.2,60.23617398712372,2024-10-09 12h34.40.292021 -0600,
156,X,1,x,155,155,0,x,1,0.49264189999666996,0.1870679999992717,0,155,155,155,460.12588390000747,,,,,,,,,,460.11194999999134,460.12588390000747,460.12588390000747,460.30929269999615,460.325920400006,,462.1101956999919,x,1,0.49264189999666996,0.1870679999992717,000009,001,2024-10-09_12h34.12.988,cpt_test,2024.2.2,60.23617398712372,2024-10-09 12h34.40.292021 -0600,
157,L,0,None,156,156,0,None,1,,,0,156,156,156,462.1244619000063,,,,,,,,,,462.11035050000646,462.1244619000063,462.1244619000063,462.3073888999934,462.3238432999933,,464.1087377000076,None,1,,,000009,001,2024-10-09_12h34.12.988,cpt_test,2024.2.2,60.23617398712372,2024-10-09 12h34.40.292021 -0600,
158,W,0,None,157,157,0,None,1,,,0,157,157,157,464.12292260001414,,,,,,,,,,464.108897099999,464.12292260001414,464.12292260001414,464.30622550001135,464.32250690000365,,466.10803669999586,None,1,,,000009,001,2024-10-09_12h34.12.988,cpt_test,2024.2.2,60.23617398712372,2024-10-09 12h34.40.292021 -0600,
159,A,0,None,158,158,0,None,1,,,0,158,158,158,466.1213151999982,,,,,,,,,,466.1082402000029,466.1213151999982,466.1213151999982,466.3043939000054,466.320730300009,,468.1055264000024,None,1,,,000009,001,2024-10-09_12h34.12.988,cpt_test,2024.2.2,60.23617398712372,2024-10-09 12h34.40.292021 -0600,
160,X,1,x,159,159,0,x,1,0.41429049998987466,0.1897733000223525,0,159,159,159,468.1195447999926,,,,,,,,,,468.10569349999423,468.1195447999926,468.1195447999926,468.30285870001535,468.3191604000167,,470.10583010001574,x,1,0.41429049998987466,0.1897733000223525,000009,001,2024-10-09_12h34.12.988,cpt_test,2024.2.2,60.23617398712372,2024-10-09 12h34.40.292021 -0600,
161,A,0,None,160,160,0,None,1,,,0,160,160,160,470.11776510000345,,,,,,,,,,470.10611389999394,470.11776510000345,470.11776510000345,470.3009766000032,470.31757710000966,,472.10229559999425,None,1,,,000009,001,2024-10-09_12h34.12.988,cpt_test,2024.2.2,60.23617398712372,2024-10-09 12h34.40.292021 -0600,
162,M,0,None,161,161,0,None,1,,,0,161,161,161,472.1163078999962,,,,,,,,,,472.102452799998,472.1163078999962,472.1163078999962,472.3159635000047,472.3159635000047,,474.1010085000016,None,1,,,000009,001,2024-10-09_12h34.12.988,cpt_test,2024.2.2,60.23617398712372,2024-10-09 12h34.40.292021 -0600,
163,X,1,x,162,162,0,x,1,0.5658097000268754,0.1814763000002131,0,162,162,162,474.1145979000139,,,,,,,,,,474.1011891000089,474.1145979000139,474.1145979000139,474.31428069999674,474.31428069999674,,476.1154313000152,x,1,0.5658097000268754,0.1814763000002131,000009,001,2024-10-09_12h34.12.988,cpt_test,2024.2.2,60.23617398712372,2024-10-09 12h34.40.292021 -0600,
164,X,1,x,163,163,0,x,1,0.3825417999760248,0.1866586000251118,0,163,163,163,476.1298089000047,,,,,,,,,,476.1155994000146,476.1298089000047,476.1298089000047,476.3126961000089,476.3289958999958,,478.1144549000019,x,1,0.3825417999760248,0.1866586000251118,000009,001,2024-10-09_12h34.12.988,cpt_test,2024.2.2,60.23617398712372,2024-10-09 12h34.40.292021 -0600,
165,K,0,None,164,164,0,None,1,,,0,164,164,164,478.1280320000078,,,,,,,,,,478.114659999992,478.1280320000078,478.1280320000078,478.3112887000025,478.32742290000897,,480.11330880000605,None,1,,,000009,001,2024-10-09_12h34.12.988,cpt_test,2024.2.2,60.23617398712372,2024-10-09 12h34.40.292021 -0600,
166,X,1,x,165,165,0,x,1,0.43401060000178404,0.1775779000017792,0,165,165,165,480.1264232000103,,,,,,,,,,480.11353540001437,480.1264232000103,480.1264232000103,480.30932820000453,480.32587940001395,,482.11096710001584,x,1,0.43401060000178404,0.1775779000017792,000009,001,2024-10-09_12h34.12.988,cpt_test,2024.2.2,60.23617398712372,2024-10-09 12h34.40.292021 -0600,
167,M,0,None,166,166,0,None,1,,,0,166,166,166,482.12460640000063,,,,,,,,,,482.1111582000158,482.12460640000063,482.12460640000063,482.3080275999964,482.3242142999952,,484.1096739000059,None,1,,,000009,001,2024-10-09_12h34.12.988,cpt_test,2024.2.2,60.23617398712372,2024-10-09 12h34.40.292021 -0600,
168,X,1,x,167,167,0,x,1,0.4242033999762498,0.18699740001466125,0,167,167,167,484.1230485000124,,,,,,,,,,484.10985350000556,484.1230485000124,484.1230485000124,484.306075600005,484.32259429999976,,486.10692059999565,x,1,0.4242033999762498,0.18699740001466125,000009,001,2024-10-09_12h34.12.988,cpt_test,2024.2.2,60.23617398712372,2024-10-09 12h34.40.292021 -0600,
169,A,0,None,168,168,0,None,1,,,0,168,168,168,486.1215954000072,,,,,,,,,,486.10707580001326,486.1215954000072,486.1215954000072,486.3043505999958,486.3210103000165,,488.1055223000003,None,1,,,000009,001,2024-10-09_12h34.12.988,cpt_test,2024.2.2,60.23617398712372,2024-10-09 12h34.40.292021 -0600,
170,X,1,x,169,169,0,x,1,0.43665210000472143,0.18112370002199896,0,169,169,169,488.1194986999908,,,,,,,,,,488.1056737000181,488.1194986999908,488.1194986999908,488.30312210001284,488.31941409999854,,490.10375660000136,x,1,0.43665210000472143,0.18112370002199896,000009,001,2024-10-09_12h34.12.988,cpt_test,2024.2.2,60.23617398712372,2024-10-09 12h34.40.292021 -0600,
171,L,0,None,170,170,0,None,1,,,0,170,170,170,490.11798040001304,,,,,,,,,,490.10389890000806,490.11798040001304,490.11798040001304,490.30143749999115,490.31757139999536,,492.10238620001473,None,1,,,000009,001,2024-10-09_12h34.12.988,cpt_test,2024.2.2,60.23617398712372,2024-10-09 12h34.40.292021 -0600,
172,E,0,None,171,171,0,None,1,,,0,171,171,171,492.11651570000686,,,,,,,,,,492.10253979999106,492.11651570000686,492.11651570000686,492.29989140000544,492.31584130000556,,494.1012638999964,None,1,,,000009,001,2024-10-09_12h34.12.988,cpt_test,2024.2.2,60.23617398712372,2024-10-09 12h34.40.292021 -0600,
173,T,0,None,172,172,0,None,1,,,0,172,172,172,494.1145804999978,,,,,,,,,,494.1014424000168,494.1145804999978,494.1145804999978,494.3142083999992,494.3142083999992,,496.11645279999357,None,1,,,000009,001,2024-10-09_12h34.12.988,cpt_test,2024.2.2,60.23617398712372,2024-10-09 12h34.40.292021 -0600,
174,F,0,None,173,173,0,None,1,,,0,173,173,173,496.12991720001446,,,,,,,,,,496.11665260000154,496.12991720001446,496.12991720001446,496.3127792000014,496.32959370000754,,498.11449559999164,None,1,,,000009,001,2024-10-09_12h34.12.988,cpt_test,2024.2.2,60.23617398712372,2024-10-09 12h34.40.292021 -0600,
175,M,0,None,174,174,0,None,1,,,0,174,174,174,498.1283236000163,,,,,,,,,,498.11467640000046,498.1283236000163,498.1283236000163,498.3114790999971,498.32773650001036,,500.11201720000827,None,1,,,000009,001,2024-10-09_12h34.12.988,cpt_test,2024.2.2,60.23617398712372,2024-10-09 12h34.40.292021 -0600,
176,Q,0,None,175,175,0,None,1,,,0,175,175,175,500.1263669000182,,,,,,,,,,500.1121548000083,500.1263669000182,500.1263669000182,500.3098963999946,500.3260513000132,,502.11067059999914,None,1,,,000009,001,2024-10-09_12h34.12.988,cpt_test,2024.2.2,60.23617398712372,2024-10-09 12h34.40.292021 -0600,
177,M,0,None,176,176,0,None,1,,,0,176,176,176,502.1248474000022,,,,,,,,,,502.1108186999918,502.1248474000022,502.1248474000022,502.30827670000144,502.3241165000072,,504.1093785999983,None,1,,,000009,001,2024-10-09_12h34.12.988,cpt_test,2024.2.2,60.23617398712372,2024-10-09 12h34.40.292021 -0600,
178,X,1,x,177,177,0,x,1,0.5004183000128251,0.1868518999835942,0,177,177,177,504.1232479000173,,,,,,,,,,504.1095545999997,504.1232479000173,504.1232479000173,504.30651970001054,504.3227654999937,,506.1078536999994,x,1,0.5004183000128251,0.1868518999835942,000009,001,2024-10-09_12h34.12.988,cpt_test,2024.2.2,60.23617398712372,2024-10-09 12h34.40.292021 -0600,
179,V,0,None,178,178,0,None,1,,,0,178,178,178,506.12181569999666,,,,,,,,,,506.1080376000027,506.12181569999666,506.12181569999666,506.3048652000143,506.32104090001667,,508.1063412000076,None,1,,,000009,001,2024-10-09_12h34.12.988,cpt_test,2024.2.2,60.23617398712372,2024-10-09 12h34.40.292021 -0600,
180,M,0,None,179,179,0,None,1,,,0,179,179,179,508.12008100000094,,,,,,,,,,508.1065338999906,508.12008100000094,508.12008100000094,508.30311510001775,508.3196484000073,,510.10386870001093,None,1,,,000009,001,2024-10-09_12h34.12.988,cpt_test,2024.2.2,60.23617398712372,2024-10-09 12h34.40.292021 -0600,
181,P,0,None,180,180,0,None,1,,,0,180,180,180,510.11845979999634,,,,,,,,,,510.1040081999963,510.11845979999634,510.11845979999634,510.3015103999933,510.3179456999933,,512.1023711000162,None,1,,,000009,001,2024-10-09_12h34.12.988,cpt_test,2024.2.2,60.23617398712372,2024-10-09 12h34.40.292021 -0600,
182,K,0,None,181,181,0,None,1,,,0,181,181,181,512.1166399999929,,,,,,,,,,512.1025836000044,512.1166399999929,512.1166399999929,512.2997249000182,512.3163193000073,,514.1015619999962,None,1,,,000009,001,2024-10-09_12h34.12.988,cpt_test,2024.2.2,60.23617398712372,2024-10-09 12h34.40.292021 -0600,
183,V,0,None,182,182,0,None,1,,,0,182,182,182,514.1149311999907,,,,,,,,,,514.1017492999963,514.1149311999907,514.1149311999907,514.3142710000102,514.3142710000102,,516.1161971999973,None,1,,,000009,001,2024-10-09_12h34.12.988,cpt_test,2024.2.2,60.23617398712372,2024-10-09 12h34.40.292021 -0600,
184,G,0,None,183,183,0,None,1,,,0,183,183,183,516.1300288999919,,,,,,,,,,516.1163656999997,516.1300288999919,516.1300288999919,516.3132417000015,516.3293756000057,,518.1147780000174,None,1,,,000009,001,2024-10-09_12h34.12.988,cpt_test,2024.2.2,60.23617398712372,2024-10-09 12h34.40.292021 -0600,
185,L,0,None,184,184,0,None,1,,,0,184,184,184,518.1284738999966,,,,,,,,,,518.1149735999934,518.1284738999966,518.1284738999966,518.3115794000041,518.3278710000159,,520.1128453999991,None,1,,,000009,001,2024-10-09_12h34.12.988,cpt_test,2024.2.2,60.23617398712372,2024-10-09 12h34.40.292021 -0600,
186,Q,0,None,185,185,0,None,1,,,0,185,185,185,520.1265606000088,,,,,,,,,,520.1130157000152,520.1265606000088,520.1265606000088,520.3100197000022,520.3260998000042,,522.1114000999951,None,1,,,000009,001,2024-10-09_12h34.12.988,cpt_test,2024.2.2,60.23617398712372,2024-10-09 12h34.40.292021 -0600,
187,N,0,None,186,186,0,None,1,,,0,186,186,186,522.1251322000171,,,,,,,,,,522.1115893000097,522.1251322000171,522.1251322000171,522.3078379000071,522.3244522000023,,524.1095499999938,None,1,,,000009,001,2024-10-09_12h34.12.988,cpt_test,2024.2.2,60.23617398712372,2024-10-09 12h34.40.292021 -0600,
188,K,0,None,187,187,0,None,1,,,0,187,187,187,524.1232069999969,,,,,,,,,,524.1097274000058,524.1232069999969,524.1232069999969,524.3065710999945,524.3228881999967,,526.107928500016,None,1,,,000009,001,2024-10-09_12h34.12.988,cpt_test,2024.2.2,60.23617398712372,2024-10-09 12h34.40.292021 -0600,
189,C,0,None,188,188,0,None,1,,,0,188,188,188,526.121856999991,,,,,,,,,,526.1080966000154,526.121856999991,526.121856999991,526.3049131000007,526.3212351000111,,528.1062475999934,None,1,,,000009,001,2024-10-09_12h34.12.988,cpt_test,2024.2.2,60.23617398712372,2024-10-09 12h34.40.292021 -0600,
190,Z,0,None,189,189,0,None,1,,,0,189,189,189,528.1199003999936,,,,,,,,,,528.1064160999958,528.1199003999936,528.1199003999936,528.3030770000187,528.3195048999914,,530.1046644000162,None,1,,,000009,001,2024-10-09_12h34.12.988,cpt_test,2024.2.2,60.23617398712372,2024-10-09 12h34.40.292021 -0600,
191,I,0,None,190,190,0,None,1,,,0,190,190,190,530.1182335999911,,,,,,,,,,530.1048426000052,530.1182335999911,530.1182335999911,530.3015902999905,530.3180802999996,,532.102386100014,None,1,,,000009,001,2024-10-09_12h34.12.988,cpt_test,2024.2.2,60.23617398712372,2024-10-09 12h34.40.292021 -0600,
192,J,0,None,191,191,0,None,1,,,0,191,191,191,532.1169798999908,,,,,,,,,,532.1025245999917,532.1169798999908,532.1169798999908,532.2999239999917,532.3164161000168,,534.1011534999998,None,1,,,000009,001,2024-10-09_12h34.12.988,cpt_test,2024.2.2,60.23617398712372,2024-10-09 12h34.40.292021 -0600,
193,X,1,x,192,192,0,x,1,0.3747663000249304,0.1857960999768693,0,192,192,192,534.1154055999941,,,,,,,,,,534.1013051999907,534.1154055999941,534.1154055999941,534.3148043999972,534.3148043999972,,536.1166801000072,x,1,0.3747663000249304,0.1857960999768693,000009,001,2024-10-09_12h34.12.988,cpt_test,2024.2.2,60.23617398712372,2024-10-09 12h34.40.292021 -0600,
194,E,0,None,193,193,0,None,1,,,0,193,193,193,536.1303143000114,,,,,,,,,,536.1168808999937,536.1303143000114,536.1303143000114,536.3133089000185,536.3297098999901,,538.1150018000044,None,1,,,000009,001,2024-10-09_12h34.12.988,cpt_test,2024.2.2,60.23617398712372,2024-10-09 12h34.40.292021 -0600,
195,X,1,x,194,194,0,x,1,0.4430505000054836,0.18547349999425933,0,194,194,194,538.1286267999967,,,,,,,,,,538.1151872999908,538.1286267999967,538.1286267999967,538.3117377000162,538.3280118000112,,540.1134401000163,x,1,0.4430505000054836,0.18547349999425933,000009,001,2024-10-09_12h34.12.988,cpt_test,2024.2.2,60.23617398712372,2024-10-09 12h34.40.292021 -0600,
196,X,1,x,195,195,0,x,1,0.3346714999934193,0.17867520000436343,0,195,195,195,540.126749899995,,,,,,,,,,540.1136549999937,540.126749899995,540.126749899995,540.3101920000045,540.326326600014,,542.1117088000174,x,1,0.3346714999934193,0.17867520000436343,000009,001,2024-10-09_12h34.12.988,cpt_test,2024.2.2,60.23617398712372,2024-10-09 12h34.40.292021 -0600,
197,O,0,None,196,196,0,None,1,,,0,196,196,196,542.1252123000158,,,,,,,,,,542.1119026000088,542.1252123000158,542.1252123000158,542.3082736000069,542.3248191000021,,544.1110936999903,None,1,,,000009,001,2024-10-09_12h34.12.988,cpt_test,2024.2.2,60.23617398712372,2024-10-09 12h34.40.292021 -0600,
198,X,1,x,197,197,0,x,1,0.41354690000298433,0.17346740001812577,0,197,197,197,544.1236587000021,,,,,,,,,,544.1113278999983,544.1236587000021,544.1236587000021,544.3068371000118,544.3231403999962,,546.1085661000106,x,1,0.41354690000298433,0.17346740001812577,000009,001,2024-10-09_12h34.12.988,cpt_test,2024.2.2,60.23617398712372,2024-10-09 12h34.40.292021 -0600,
199,T,0,None,198,198,0,None,1,,,0,198,198,198,546.1219063000171,,,,,,,,,,546.1087741999945,546.1219063000171,546.1219063000171,546.3050573999935,546.3216333000164,,548.1059069999901,None,1,,,000009,001,2024-10-09_12h34.12.988,cpt_test,2024.2.2,60.23617398712372,2024-10-09 12h34.40.292021 -0600,
200,X,1,x,199,199,0,x,1,0.39275410000118427,0.18222449999302626,0,199,199,199,548.1204242999956,,,,,,,,,,548.1060439000139,548.1204242999956,548.1204242999956,548.3036859999993,548.3199794999964,,550.1053891000047,x,1,0.39275410000118427,0.18222449999302626,000009,001,2024-10-09_12h34.12.988,cpt_test,2024.2.2,60.23617398712372,2024-10-09 12h34.40.292021 -0600,
201,L,0,None,200,200,0,None,1,,,0,200,200,200,550.1186587999982,,,,,,,,,,550.1055926000117,550.1186587999982,550.1186587999982,550.3018061000039,550.3181178999948,,552.1032535000122,None,1,,,000009,001,2024-10-09_12h34.12.988,cpt_test,2024.2.2,60.23617398712372,2024-10-09 12h34.40.292021 -0600,
