Number,letra,target,correctas,thisN,thisTrialN,thisRepN,respuesta.keys,respuesta.corr,respuesta.rt,respuesta.duration,trials.thisRepN,trials.thisTrialN,trials.thisN,trials.thisIndex,thisRow.t,notes,Ojos_abiertos.started,Abiertos.started,Ojos_abiertos.stopped,Ojos_cerrados.started,Cerrados.started,alert.started,Cerrados.stopped,alert.stopped,Ojos_cerrados.stopped,Test.started,prueba.started,respuesta.started,text.started,prueba.stopped,Test.stopped,trials.respuesta.keys,trials.respuesta.corr,trials.respuesta.rt,trials.respuesta.duration,text.stopped,participant,session,date,expName,psychopyVersion,frameRate,expStart,
,,,,,,,,,,,,,,,,,0.006722400023136288,0.014544400008162484,90.00754710001638,,,,,,,,,,,,,,,,,,000017,001,2024-10-10_13h08.54.830,cpt_test,2024.2.2,60.197810003184735,2024-10-10 13h09.23.585666 -0600,
,,,,,,,,,,,,,,,,,,,,90.00946480000857,90.01980790001107,150.00224346667918,150.0353596000059,150.3109606000071,150.10792920002132,,,,,,,,,,,,000017,001,2024-10-10_13h08.54.830,cpt_test,2024.2.2,60.197810003184735,2024-10-10 13h09.23.585666 -0600,
1,A,0,None,0,0,0,None,1,,,0,0,0,0,150.3109606000071,,,,,,,,,,,150.13481280000997,150.3109606000071,150.3109606000071,150.3234480000101,150.5182371000119,152.10628390000784,None,1,,,,000017,001,2024-10-10_13h08.54.830,cpt_test,2024.2.2,60.197810003184735,2024-10-10 13h09.23.585666 -0600,
2,R,0,None,1,1,0,None,1,,,0,1,1,1,152.13474010000937,,,,,,,,,,,152.1066180000198,152.13474010000937,152.13474010000937,152.30045619999873,152.33345490001375,154.1047715000168,None,1,,,,000017,001,2024-10-10_13h08.54.830,cpt_test,2024.2.2,60.197810003184735,2024-10-10 13h09.23.585666 -0600,
3,L,0,None,2,2,0,None,1,,,0,2,2,2,154.13420900001074,,,,,,,,,,,154.10509550001007,154.13420900001074,154.13420900001074,154.31543380001676,154.34850340001867,156.10277759999735,None,1,,,,000017,001,2024-10-10_13h08.54.830,cpt_test,2024.2.2,60.197810003184735,2024-10-10 13h09.23.585666 -0600,
4,X,1,x,3,3,0,x,1,0.37748130000545643,0.16222910000942647,0,3,3,3,156.13185150001664,,,,,,,,,,,156.103101900022,156.13185150001664,156.13185150001664,156.31386120000388,156.3468816000095,158.1010060000117,x,1,0.37748130000545643,0.16222910000942647,,000017,001,2024-10-10_13h08.54.830,cpt_test,2024.2.2,60.197810003184735,2024-10-10 13h09.23.585666 -0600,
5,O,0,None,4,4,0,None,1,,,0,4,4,4,158.13079220001237,,,,,,,,,,,158.10134220001055,158.13079220001237,158.13079220001237,158.31231920002028,158.34515140001895,160.11623970000073,None,1,,,,000017,001,2024-10-10_13h08.54.830,cpt_test,2024.2.2,60.197810003184735,2024-10-10 13h09.23.585666 -0600,
6,G,0,None,5,5,0,None,1,,,0,5,5,5,160.1453972000163,,,,,,,,,,,160.11656870000297,160.1453972000163,160.1453972000163,160.31108700000914,160.36026070002117,162.11472400001367,None,1,,,,000017,001,2024-10-10_13h08.54.830,cpt_test,2024.2.2,60.197810003184735,2024-10-10 13h09.23.585666 -0600,
7,P,0,None,6,6,0,None,1,,,0,6,6,6,162.13890260001062,,,,,,,,,,,162.11504330000025,162.13890260001062,162.13890260001062,162.3089397000149,162.3420538000064,164.1129128000175,None,1,,,,000017,001,2024-10-10_13h08.54.830,cpt_test,2024.2.2,60.197810003184735,2024-10-10 13h09.23.585666 -0600,
8,X,1,x,7,7,0,x,1,0.40074559999629855,0.16253750000032596,0,7,7,7,164.12543200000073,,,,,,,,,,,164.11323670001002,164.12543200000073,164.12543200000073,164.3074308000214,164.34028870001202,166.11161260001245,x,1,0.40074559999629855,0.16253750000032596,,000017,001,2024-10-10_13h08.54.830,cpt_test,2024.2.2,60.197810003184735,2024-10-10 13h09.23.585666 -0600,
9,X,1,x,8,8,0,x,1,0.4687374000204727,0.20067500000004657,0,8,8,8,166.12255719999666,,,,,,,,,,,166.11197660001926,166.12255719999666,166.12255719999666,166.30551630002446,166.32212240001536,168.1092891000153,x,1,0.4687374000204727,0.20067500000004657,,000017,001,2024-10-10_13h08.54.830,cpt_test,2024.2.2,60.197810003184735,2024-10-10 13h09.23.585666 -0600,
10,Z,0,None,9,9,0,None,1,,,0,9,9,9,168.13835409999592,,,,,,,,,,,168.1096283000079,168.13835409999592,168.13835409999592,168.30385500000557,168.35372970000026,170.10776120002265,None,1,,,,000017,001,2024-10-10_13h08.54.830,cpt_test,2024.2.2,60.197810003184735,2024-10-10 13h09.23.585666 -0600,
11,I,0,None,10,10,0,None,1,,,0,10,10,10,170.12814400001662,,,,,,,,,,,170.10795309999958,170.12814400001662,170.12814400001662,170.3020213000127,170.33506670000497,172.1066139000177,None,1,,,,000017,001,2024-10-10_13h08.54.830,cpt_test,2024.2.2,60.197810003184735,2024-10-10 13h09.23.585666 -0600,
12,D,0,None,11,11,0,None,1,,,0,11,11,11,172.1373947999964,,,,,,,,,,,172.1069478999998,172.1373947999964,172.1373947999964,172.30076820001705,172.35041549999733,174.10436640001717,None,1,,,,000017,001,2024-10-10_13h08.54.830,cpt_test,2024.2.2,60.197810003184735,2024-10-10 13h09.23.585666 -0600,
13,X,1,x,12,12,0,x,1,0.4039782999898307,0.19220789999235421,0,12,12,12,174.11711059999652,,,,,,,,,,,174.10466890002135,174.11711059999652,174.11711059999652,174.31583430001047,174.3321818000113,176.10323639999842,x,1,0.4039782999898307,0.19220789999235421,,000017,001,2024-10-10_13h08.54.830,cpt_test,2024.2.2,60.197810003184735,2024-10-10 13h09.23.585666 -0600,
14,Y,0,None,13,13,0,None,1,,,0,13,13,13,176.1367995000037,,,,,,,,,,,176.10358789999736,176.1367995000037,176.1367995000037,176.31401800000458,176.34701340002357,178.10161460001837,None,1,,,,000017,001,2024-10-10_13h08.54.830,cpt_test,2024.2.2,60.197810003184735,2024-10-10 13h09.23.585666 -0600,
15,X,1,x,14,14,0,x,1,0.35614459999487735,0.18089650000911206,0,14,14,14,178.11420760001056,,,,,,,,,,,178.10193890001392,178.11420760001056,178.11420760001056,178.3124915000226,178.3286766000092,180.11620750001748,x,1,0.35614459999487735,0.18089650000911206,,000017,001,2024-10-10_13h08.54.830,cpt_test,2024.2.2,60.197810003184735,2024-10-10 13h09.23.585666 -0600,
16,X,1,x,15,15,0,x,1,0.4870760999910999,0.20393309998326004,0,15,15,15,180.1276439000212,,,,,,,,,,,180.11653490000754,180.1276439000212,180.1276439000212,180.31070880001062,180.3270653000218,182.11503580000135,x,1,0.4870760999910999,0.20393309998326004,,000017,001,2024-10-10_13h08.54.830,cpt_test,2024.2.2,60.197810003184735,2024-10-10 13h09.23.585666 -0600,
17,A,0,None,16,16,0,None,1,,,0,16,16,16,182.12785849999636,,,,,,,,,,,182.115380800009,182.12785849999636,182.12785849999636,182.30922980001196,182.34227290001581,184.11448390001897,None,1,,,,000017,001,2024-10-10_13h08.54.830,cpt_test,2024.2.2,60.197810003184735,2024-10-10 13h09.23.585666 -0600,
18,J,0,None,17,17,0,None,1,,,0,17,17,17,184.14939030000824,,,,,,,,,,,184.1148899999971,184.14939030000824,184.14939030000824,184.30940450000344,184.35719850001624,186.11165249999613,None,1,,,,000017,001,2024-10-10_13h08.54.830,cpt_test,2024.2.2,60.197810003184735,2024-10-10 13h09.23.585666 -0600,
19,G,0,None,18,18,0,None,1,,,0,18,18,18,186.1243369000149,,,,,,,,,,,186.11197359999642,186.1243369000149,186.1243369000149,186.30602630000794,186.33891600000788,188.1100459000154,None,1,,,,000017,001,2024-10-10_13h08.54.830,cpt_test,2024.2.2,60.197810003184735,2024-10-10 13h09.23.585666 -0600,
20,X,1,x,19,19,0,x,1,0.28743880000547506,0.20976209998480044,0,19,19,19,188.12271280001733,,,,,,,,,,,188.11036140000215,188.12271280001733,188.12271280001733,188.30413570001838,188.3371209000179,190.10830220000935,x,1,0.28743880000547506,0.20976209998480044,,000017,001,2024-10-10_13h08.54.830,cpt_test,2024.2.2,60.197810003184735,2024-10-10 13h09.23.585666 -0600,
21,T,0,None,20,20,0,None,1,,,0,20,20,20,190.1402449000161,,,,,,,,,,,190.10862800001632,190.1402449000161,190.1402449000161,190.30583490000572,190.35233860000153,192.10625690000597,None,1,,,,000017,001,2024-10-10_13h08.54.830,cpt_test,2024.2.2,60.197810003184735,2024-10-10 13h09.23.585666 -0600,
22,S,0,None,21,21,0,None,1,,,0,21,21,21,192.13871010000003,,,,,,,,,,,192.1065770999994,192.13871010000003,192.13871010000003,192.30103060000692,192.35053610001341,194.10484770001494,None,1,,,,000017,001,2024-10-10_13h08.54.830,cpt_test,2024.2.2,60.197810003184735,2024-10-10 13h09.23.585666 -0600,
23,X,1,x,22,22,0,x,1,0.3430499999958556,0.17569219999131747,0,22,22,22,194.11735240000417,,,,,,,,,,,194.10515720001422,194.11735240000417,194.11735240000417,194.31592280001496,194.3321632000152,196.103522600024,x,1,0.3430499999958556,0.17569219999131747,,000017,001,2024-10-10_13h08.54.830,cpt_test,2024.2.2,60.197810003184735,2024-10-10 13h09.23.585666 -0600,
24,S,0,None,23,23,0,None,1,,,0,23,23,23,196.11636960000033,,,,,,,,,,,196.1038812000188,196.11636960000033,196.11636960000033,196.31440100001055,196.33045700000366,198.10151870001573,None,1,,,,000017,001,2024-10-10_13h08.54.830,cpt_test,2024.2.2,60.197810003184735,2024-10-10 13h09.23.585666 -0600,
25,G,0,None,24,24,0,None,1,,,0,24,24,24,198.11404960000073,,,,,,,,,,,198.10182260000147,198.11404960000073,198.11404960000073,198.31279750002432,198.32890230001067,200.1166015000199,None,1,,,,000017,001,2024-10-10_13h08.54.830,cpt_test,2024.2.2,60.197810003184735,2024-10-10 13h09.23.585666 -0600,
26,O,0,None,25,25,0,None,1,,,0,25,25,25,200.12915029999567,,,,,,,,,,,200.11692729999777,200.12915029999567,200.12915029999567,200.31104090000736,200.34417060000123,202.11518970000907,None,1,,,,000017,001,2024-10-10_13h08.54.830,cpt_test,2024.2.2,60.197810003184735,2024-10-10 13h09.23.585666 -0600,
27,P,0,None,26,26,0,None,1,,,0,26,26,26,202.12777479999932,,,,,,,,,,,202.1155156000168,202.12777479999932,202.12777479999932,202.30944150002324,202.3422160000191,204.11356150000938,None,1,,,,000017,001,2024-10-10_13h08.54.830,cpt_test,2024.2.2,60.197810003184735,2024-10-10 13h09.23.585666 -0600,
28,Z,0,None,27,27,0,None,1,,,0,27,27,27,204.1262287000136,,,,,,,,,,,204.11388040002203,204.1262287000136,204.1262287000136,204.30780480001704,204.34064670000225,206.11219750001328,None,1,,,,000017,001,2024-10-10_13h08.54.830,cpt_test,2024.2.2,60.197810003184735,2024-10-10 13h09.23.585666 -0600,
29,X,1,x,28,28,0,x,1,0.32112980002420954,0.19439049999346025,0,28,28,28,206.12522499999614,,,,,,,,,,,206.11254790000385,206.12522499999614,206.12522499999614,206.30617320002057,206.33909390002373,208.11003150002216,x,1,0.32112980002420954,0.19439049999346025,,000017,001,2024-10-10_13h08.54.830,cpt_test,2024.2.2,60.197810003184735,2024-10-10 13h09.23.585666 -0600,
30,I,0,None,29,29,0,None,1,,,0,29,29,29,208.12201079999795,,,,,,,,,,,208.1103525000217,208.12201079999795,208.12201079999795,208.30415310000535,208.33732200000668,210.108507500001,None,1,,,,000017,001,2024-10-10_13h08.54.830,cpt_test,2024.2.2,60.197810003184735,2024-10-10 13h09.23.585666 -0600,
31,F,0,None,30,30,0,None,1,,,0,30,30,30,210.13763020001352,,,,,,,,,,,210.10883290000493,210.13763020001352,210.13763020001352,210.30282400001306,210.35250999999698,212.10642120000557,None,1,,,,000017,001,2024-10-10_13h08.54.830,cpt_test,2024.2.2,60.197810003184735,2024-10-10 13h09.23.585666 -0600,
32,M,0,None,31,31,0,None,1,,,0,31,31,31,212.13910270002089,,,,,,,,,,,212.1067355000123,212.13910270002089,212.13910270002089,212.30108590002055,212.35067990000243,214.10522029999993,None,1,,,,000017,001,2024-10-10_13h08.54.830,cpt_test,2024.2.2,60.197810003184735,2024-10-10 13h09.23.585666 -0600,
33,T,0,None,32,32,0,None,1,,,0,32,32,32,214.11832480001613,,,,,,,,,,,214.10555530001875,214.11832480001613,214.11832480001613,214.29956720001064,214.33256000000983,216.10479860001942,None,1,,,,000017,001,2024-10-10_13h08.54.830,cpt_test,2024.2.2,60.197810003184735,2024-10-10 13h09.23.585666 -0600,
34,A,0,None,33,33,0,None,1,,,0,33,33,33,216.11936060001608,,,,,,,,,,,216.1052028000122,216.11936060001608,216.11936060001608,216.30709710001247,216.32373420000658,218.10146180001902,None,1,,,,000017,001,2024-10-10_13h08.54.830,cpt_test,2024.2.2,60.197810003184735,2024-10-10 13h09.23.585666 -0600,
35,E,0,None,34,34,0,None,1,,,0,34,34,34,218.12950530002126,,,,,,,,,,,218.10176710001542,218.12950530002126,218.12950530002126,218.31289760000072,218.32917530002305,220.11696350001148,None,1,,,,000017,001,2024-10-10_13h08.54.830,cpt_test,2024.2.2,60.197810003184735,2024-10-10 13h09.23.585666 -0600,
36,X,1,x,35,35,0,x,1,0.3333201000059489,0.18442479998338968,0,35,35,35,220.12968169999658,,,,,,,,,,,220.11728960002074,220.12968169999658,220.12968169999658,220.31130940001458,220.34409280002,222.11532870001975,x,1,0.3333201000059489,0.18442479998338968,,000017,001,2024-10-10_13h08.54.830,cpt_test,2024.2.2,60.197810003184735,2024-10-10 13h09.23.585666 -0600,
37,A,0,None,36,36,0,None,1,,,0,36,36,36,222.12789420000627,,,,,,,,,,,222.11566890001995,222.12789420000627,222.12789420000627,222.3096398000198,222.34245990001364,224.11371600002167,None,1,,,,000017,001,2024-10-10_13h08.54.830,cpt_test,2024.2.2,60.197810003184735,2024-10-10 13h09.23.585666 -0600,
38,S,0,None,37,37,0,None,1,,,0,37,37,37,224.12621750001563,,,,,,,,,,,224.11402890001773,224.12621750001563,224.12621750001563,224.30780420001247,224.34079600000405,226.11176450000494,None,1,,,,000017,001,2024-10-10_13h08.54.830,cpt_test,2024.2.2,60.197810003184735,2024-10-10 13h09.23.585666 -0600,
39,U,0,None,38,38,0,None,1,,,0,38,38,38,226.1442406999995,,,,,,,,,,,226.11206770001445,226.1442406999995,226.1442406999995,226.306591200002,226.35592760000145,228.11025610001525,None,1,,,,000017,001,2024-10-10_13h08.54.830,cpt_test,2024.2.2,60.197810003184735,2024-10-10 13h09.23.585666 -0600,
40,U,0,None,39,39,0,None,1,,,0,39,39,39,228.121512600017,,,,,,,,,,,228.11058629999752,228.121512600017,228.121512600017,228.30451740001445,228.32099980002386,230.10859360001632,None,1,,,,000017,001,2024-10-10_13h08.54.830,cpt_test,2024.2.2,60.197810003184735,2024-10-10 13h09.23.585666 -0600,
41,Q,0,None,40,40,0,None,1,,,0,40,40,40,230.13854990000254,,,,,,,,,,,230.10896690000664,230.13854990000254,230.13854990000254,230.30299140000716,230.35247179999715,232.10729040001752,None,1,,,,000017,001,2024-10-10_13h08.54.830,cpt_test,2024.2.2,60.197810003184735,2024-10-10 13h09.23.585666 -0600,
42,E,0,None,41,41,0,None,1,,,0,41,41,41,232.12006570000085,,,,,,,,,,,232.10761239999556,232.12006570000085,232.12006570000085,232.30124480000813,232.33447590001742,234.10500609999872,None,1,,,,000017,001,2024-10-10_13h08.54.830,cpt_test,2024.2.2,60.197810003184735,2024-10-10 13h09.23.585666 -0600,
43,B,0,None,42,42,0,None,1,,,0,42,42,42,234.13421160000144,,,,,,,,,,,234.1053197000001,234.13421160000144,234.13421160000144,234.2995355000021,234.34926650000853,236.10489790001884,None,1,,,,000017,001,2024-10-10_13h08.54.830,cpt_test,2024.2.2,60.197810003184735,2024-10-10 13h09.23.585666 -0600,
44,O,0,None,43,43,0,None,1,,,0,43,43,43,236.1185660000192,,,,,,,,,,,236.10531569999876,236.1185660000192,236.1185660000192,236.31482990001678,236.33107519999612,238.1021699999983,None,1,,,,000017,001,2024-10-10_13h08.54.830,cpt_test,2024.2.2,60.197810003184735,2024-10-10 13h09.23.585666 -0600,
45,E,0,None,44,44,0,None,1,,,0,44,44,44,238.1155852000229,,,,,,,,,,,238.10249580000527,238.1155852000229,238.1155852000229,238.31313370002317,238.32935440001893,240.11762620002264,None,1,,,,000017,001,2024-10-10_13h08.54.830,cpt_test,2024.2.2,60.197810003184735,2024-10-10 13h09.23.585666 -0600,
46,F,0,None,45,45,0,None,1,,,0,45,45,45,240.13033630000427,,,,,,,,,,,240.11797150000348,240.13033630000427,240.13033630000427,240.31139000001713,240.34468619999825,242.1151230999967,None,1,,,,000017,001,2024-10-10_13h08.54.830,cpt_test,2024.2.2,60.197810003184735,2024-10-10 13h09.23.585666 -0600,
47,V,0,None,46,46,0,None,1,,,0,46,46,46,242.14399989999947,,,,,,,,,,,242.11542850002297,242.14399989999947,242.14399989999947,242.3098125999968,242.35942059999797,244.1138070000161,None,1,,,,000017,001,2024-10-10_13h08.54.830,cpt_test,2024.2.2,60.197810003184735,2024-10-10 13h09.23.585666 -0600,
48,X,1,x,47,47,0,x,1,0.4796896000043489,0.18961420000414364,0,47,47,47,244.12639020002098,,,,,,,,,,,244.11410980002256,244.12639020002098,244.12639020002098,244.30798700000742,244.3411180000112,246.11204850001377,x,1,0.4796896000043489,0.18961420000414364,,000017,001,2024-10-10_13h08.54.830,cpt_test,2024.2.2,60.197810003184735,2024-10-10 13h09.23.585666 -0600,
49,X,1,x,48,48,0,x,1,0.4944571999949403,0.17686959999264218,0,48,48,48,246.12336810000124,,,,,,,,,,,246.11237200000323,246.12336810000124,246.12336810000124,246.30633280001348,246.32279880001443,248.110642500018,x,1,0.4944571999949403,0.17686959999264218,,000017,001,2024-10-10_13h08.54.830,cpt_test,2024.2.2,60.197810003184735,2024-10-10 13h09.23.585666 -0600,
50,C,0,None,49,49,0,None,1,,,0,49,49,49,248.13718400002108,,,,,,,,,,,248.11098830000265,248.13718400002108,248.13718400002108,248.30490350001492,248.337674600014,250.108836600004,None,1,,,,000017,001,2024-10-10_13h08.54.830,cpt_test,2024.2.2,60.197810003184735,2024-10-10 13h09.23.585666 -0600,
51,M,0,None,50,50,0,None,1,,,0,50,50,50,250.12145990002318,,,,,,,,,,,250.10916190000717,250.12145990002318,250.12145990002318,250.3032314000011,250.33611720000044,252.10847700000159,None,1,,,,000017,001,2024-10-10_13h08.54.830,cpt_test,2024.2.2,60.197810003184735,2024-10-10 13h09.23.585666 -0600,
52,D,0,None,51,51,0,None,1,,,0,51,51,51,252.1224316000007,,,,,,,,,,,252.1088568000123,252.1224316000007,252.1224316000007,252.30835900001694,252.32488620001823,254.1059427,None,1,,,,000017,001,2024-10-10_13h08.54.830,cpt_test,2024.2.2,60.197810003184735,2024-10-10 13h09.23.585666 -0600,
53,X,1,x,52,52,0,x,1,0.33871429998544045,0.1832760999968741,0,52,52,52,254.11848360000295,,,,,,,,,,,254.10625650000293,254.11848360000295,254.11848360000295,254.29991680002422,254.33282910002163,256.1041317000054,x,1,0.33871429998544045,0.1832760999968741,,000017,001,2024-10-10_13h08.54.830,cpt_test,2024.2.2,60.197810003184735,2024-10-10 13h09.23.585666 -0600,
54,K,0,None,53,53,0,None,1,,,0,53,53,53,256.1334407000104,,,,,,,,,,,256.1044703000225,256.1334407000104,256.1334407000104,256.3149559000158,256.3480182000203,258.10232330000144,None,1,,,,000017,001,2024-10-10_13h08.54.830,cpt_test,2024.2.2,60.197810003184735,2024-10-10 13h09.23.585666 -0600,
55,X,1,x,54,54,0,x,1,0.41235619998769835,0.161747700010892,0,54,54,54,258.11345160001656,,,,,,,,,,,258.10250920002,258.11345160001656,258.11345160001656,258.3128382000141,258.3128382000141,260.10066510000615,x,1,0.41235619998769835,0.161747700010892,,000017,001,2024-10-10_13h08.54.830,cpt_test,2024.2.2,60.197810003184735,2024-10-10 13h09.23.585666 -0600,
56,N,0,None,55,55,0,None,1,,,0,55,55,55,260.1315773000242,,,,,,,,,,,260.10099780000746,260.1315773000242,260.1315773000242,260.3114819000184,260.34466060000705,262.1158800999983,None,1,,,,000017,001,2024-10-10_13h08.54.830,cpt_test,2024.2.2,60.197810003184735,2024-10-10 13h09.23.585666 -0600,
57,M,0,None,56,56,0,None,1,,,0,56,56,56,262.1285247000051,,,,,,,,,,,262.1161823000002,262.1285247000051,262.1285247000051,262.30998940000427,262.34303170000203,264.11408940001274,None,1,,,,000017,001,2024-10-10_13h08.54.830,cpt_test,2024.2.2,60.197810003184735,2024-10-10 13h09.23.585666 -0600,
58,X,1,x,57,57,0,x,1,0.3323163000168279,0.17138299997895956,0,57,57,57,264.1270729000098,,,,,,,,,,,264.11440240000957,264.1270729000098,264.1270729000098,264.3091828000033,264.3429037000169,266.1119467000244,x,1,0.3323163000168279,0.17138299997895956,,000017,001,2024-10-10_13h08.54.830,cpt_test,2024.2.2,60.197810003184735,2024-10-10 13h09.23.585666 -0600,
59,F,0,None,58,58,0,None,1,,,0,58,58,58,266.1245811000117,,,,,,,,,,,266.1122650000034,266.1245811000117,266.1245811000117,266.3066008000169,266.3396424000093,268.1106335000077,None,1,,,,000017,001,2024-10-10_13h08.54.830,cpt_test,2024.2.2,60.197810003184735,2024-10-10 13h09.23.585666 -0600,
60,A,0,None,59,59,0,None,1,,,0,59,59,59,268.1234134999977,,,,,,,,,,,268.11094120002235,268.1234134999977,268.1234134999977,268.30508350001764,268.3380241999985,270.1093246000237,None,1,,,,000017,001,2024-10-10_13h08.54.830,cpt_test,2024.2.2,60.197810003184735,2024-10-10 13h09.23.585666 -0600,
61,X,1,x,60,60,0,x,1,0.4255192000127863,0.1728978999890387,0,60,60,60,270.1221568000037,,,,,,,,,,,270.1096505000023,270.1221568000037,270.1221568000037,270.30320670001674,270.3364003000024,272.10747810002067,x,1,0.4255192000127863,0.1728978999890387,,000017,001,2024-10-10_13h08.54.830,cpt_test,2024.2.2,60.197810003184735,2024-10-10 13h09.23.585666 -0600,
62,V,0,None,61,61,0,None,1,,,0,61,61,61,272.12009470001794,,,,,,,,,,,272.10781680000946,272.12009470001794,272.12009470001794,272.3017942000006,272.3347621000139,274.1058009999979,None,1,,,,000017,001,2024-10-10_13h08.54.830,cpt_test,2024.2.2,60.197810003184735,2024-10-10 13h09.23.585666 -0600,
63,U,0,None,62,62,0,None,1,,,0,62,62,62,274.1185270000133,,,,,,,,,,,274.1061208000174,274.1185270000133,274.1185270000133,274.300146100024,274.3329032000038,276.10423190001165,None,1,,,,000017,001,2024-10-10_13h08.54.830,cpt_test,2024.2.2,60.197810003184735,2024-10-10 13h09.23.585666 -0600,
64,M,0,None,63,63,0,None,1,,,0,63,63,63,276.1169446000131,,,,,,,,,,,276.10455530000036,276.1169446000131,276.1169446000131,276.31511150000733,276.3313507999992,278.10242470001685,None,1,,,,000017,001,2024-10-10_13h08.54.830,cpt_test,2024.2.2,60.197810003184735,2024-10-10 13h09.23.585666 -0600,
65,X,1,x,64,64,0,x,1,0.44810039998264983,0.19140980002703145,0,64,64,64,278.11438330000965,,,,,,,,,,,278.10276540002087,278.11438330000965,278.11438330000965,278.31335880002007,278.3295979000104,280.10066590001225,x,1,0.44810039998264983,0.19140980002703145,,000017,001,2024-10-10_13h08.54.830,cpt_test,2024.2.2,60.197810003184735,2024-10-10 13h09.23.585666 -0600,
66,A,0,None,65,65,0,None,1,,,0,65,65,65,280.11327309999615,,,,,,,,,,,280.1010070000193,280.11327309999615,280.11327309999615,280.3117676000111,280.3281998000166,282.11566840001615,None,1,,,,000017,001,2024-10-10_13h08.54.830,cpt_test,2024.2.2,60.197810003184735,2024-10-10 13h09.23.585666 -0600,
67,N,0,None,66,66,0,None,1,,,0,66,66,66,282.12847100000363,,,,,,,,,,,282.1159713000234,282.12847100000363,282.12847100000363,282.31287220001104,282.32721990000573,284.11251610002364,None,1,,,,000017,001,2024-10-10_13h08.54.830,cpt_test,2024.2.2,60.197810003184735,2024-10-10 13h09.23.585666 -0600,
68,H,0,None,67,67,0,None,1,,,0,67,67,67,284.13842880001175,,,,,,,,,,,284.11275700002443,284.13842880001175,284.13842880001175,284.30860990000656,284.3412626000063,286.1146779000119,None,1,,,,000017,001,2024-10-10_13h08.54.830,cpt_test,2024.2.2,60.197810003184735,2024-10-10 13h09.23.585666 -0600,
69,A,0,None,68,68,0,None,1,,,0,68,68,68,286.1281717000238,,,,,,,,,,,286.1150095000048,286.1281717000238,286.1281717000238,286.3066513000231,286.3397540000151,288.10901260000537,None,1,,,288.1048417999991,000017,001,2024-10-10_13h08.54.830,cpt_test,2024.2.2,60.197810003184735,2024-10-10 13h09.23.585666 -0600,
70,X,1,x,69,69,0,x,1,0.4133844999887515,0.1853840000112541,0,69,69,69,288.12174870001036,,,,,,,,,,,288.1092164000147,288.12174870001036,288.12174870001036,288.30505320001976,288.3213744999957,290.1090371000173,x,1,0.4133844999887515,0.1853840000112541,,000017,001,2024-10-10_13h08.54.830,cpt_test,2024.2.2,60.197810003184735,2024-10-10 13h09.23.585666 -0600,
71,F,0,None,70,70,0,None,1,,,0,70,70,70,290.12148660002276,,,,,,,,,,,290.1093563000031,290.12148660002276,290.12148660002276,290.30330400000094,290.3362990000169,292.1077351999993,None,1,,,,000017,001,2024-10-10_13h08.54.830,cpt_test,2024.2.2,60.197810003184735,2024-10-10 13h09.23.585666 -0600,
72,N,0,None,71,71,0,None,1,,,0,71,71,71,292.12271140000666,,,,,,,,,,,292.1080819000199,292.12271140000666,292.12271140000666,292.3016723000037,292.33456850002403,294.105481400009,None,1,,,,000017,001,2024-10-10_13h08.54.830,cpt_test,2024.2.2,60.197810003184735,2024-10-10 13h09.23.585666 -0600,
73,K,0,None,72,72,0,None,1,,,0,72,72,72,294.11807530000806,,,,,,,,,,,294.1057943000051,294.11807530000806,294.11807530000806,294.2999184000073,294.33292010001605,296.1021035000158,None,1,,,,000017,001,2024-10-10_13h08.54.830,cpt_test,2024.2.2,60.197810003184735,2024-10-10 13h09.23.585666 -0600,
74,Y,0,None,73,73,0,None,1,,,0,73,73,73,296.1151456000225,,,,,,,,,,,296.1023449000204,296.1151456000225,296.1151456000225,296.3147631000029,296.3147631000029,298.10621270001866,None,1,,,,000017,001,2024-10-10_13h08.54.830,cpt_test,2024.2.2,60.197810003184735,2024-10-10 13h09.23.585666 -0600,
75,Y,0,None,74,74,0,None,1,,,0,74,74,74,298.1171371000237,,,,,,,,,,,298.1066835000238,298.1171371000237,298.1171371000237,298.3074830000114,298.32229189999634,300.1011367000174,None,1,,,,000017,001,2024-10-10_13h08.54.830,cpt_test,2024.2.2,60.197810003184735,2024-10-10 13h09.23.585666 -0600,
76,R,0,None,75,75,0,None,1,,,0,75,75,75,300.11366070000804,,,,,,,,,,,300.10144779999973,300.11366070000804,300.11366070000804,300.311761799996,300.3282143000106,302.1156544999976,None,1,,,,000017,001,2024-10-10_13h08.54.830,cpt_test,2024.2.2,60.197810003184735,2024-10-10 13h09.23.585666 -0600,
77,X,1,x,76,76,0,x,1,0.36537110002245754,0.17235409998102114,0,76,76,76,302.12841010000557,,,,,,,,,,,302.1159568000003,302.12841010000557,302.12841010000557,302.31024660001276,302.3430841000227,304.1132501999964,x,1,0.36537110002245754,0.17235409998102114,,000017,001,2024-10-10_13h08.54.830,cpt_test,2024.2.2,60.197810003184735,2024-10-10 13h09.23.585666 -0600,
78,R,0,None,77,77,0,None,1,,,0,77,77,77,304.1252018000232,,,,,,,,,,,304.11351760002435,304.1252018000232,304.1252018000232,304.3096931000182,304.3264734999975,306.11184620001586,None,1,,,,000017,001,2024-10-10_13h08.54.830,cpt_test,2024.2.2,60.197810003184735,2024-10-10 13h09.23.585666 -0600,
79,F,0,None,78,78,0,None,1,,,0,78,78,78,306.1239894000173,,,,,,,,,,,306.1121387000021,306.1239894000173,306.1239894000173,306.3067157000187,306.3231970000197,308.1111013000191,None,1,,,,000017,001,2024-10-10_13h08.54.830,cpt_test,2024.2.2,60.197810003184735,2024-10-10 13h09.23.585666 -0600,
80,K,0,None,79,79,0,None,1,,,0,79,79,79,308.1243376000202,,,,,,,,,,,308.11144470001454,308.1243376000202,308.1243376000202,308.3063829000166,308.3409033000062,310.10923719999846,None,1,,,,000017,001,2024-10-10_13h08.54.830,cpt_test,2024.2.2,60.197810003184735,2024-10-10 13h09.23.585666 -0600,
81,O,0,None,80,80,0,None,1,,,0,80,80,80,310.1204513999983,,,,,,,,,,,310.1094638000068,310.1204513999983,310.1204513999983,310.3038493000204,310.31977060000645,312.1050605000055,None,1,,,,000017,001,2024-10-10_13h08.54.830,cpt_test,2024.2.2,60.197810003184735,2024-10-10 13h09.23.585666 -0600,
82,F,0,None,81,81,0,None,1,,,0,81,81,81,312.118904700008,,,,,,,,,,,312.1052481000079,312.118904700008,312.118904700008,312.3052299999981,312.319802300015,314.1061730000074,None,1,,,,000017,001,2024-10-10_13h08.54.830,cpt_test,2024.2.2,60.197810003184735,2024-10-10 13h09.23.585666 -0600,
83,F,0,None,82,82,0,None,1,,,0,82,82,82,314.1171564999968,,,,,,,,,,,314.10648960000253,314.1171564999968,314.1171564999968,314.3001681000169,314.31639240001095,316.10576570002013,None,1,,,,000017,001,2024-10-10_13h08.54.830,cpt_test,2024.2.2,60.197810003184735,2024-10-10 13h09.23.585666 -0600,
84,W,0,None,83,83,0,None,1,,,0,83,83,83,316.1426071000169,,,,,,,,,,,316.10614340001484,316.1426071000169,316.1426071000169,316.3058844000043,316.35575430002064,318.10416420002,None,1,,,,000017,001,2024-10-10_13h08.54.830,cpt_test,2024.2.2,60.197810003184735,2024-10-10 13h09.23.585666 -0600,
85,X,1,x,84,84,0,x,1,0.40528040000936016,0.17614880000473931,0,84,84,84,318.11862670001574,,,,,,,,,,,318.10459360000095,318.11862670001574,318.11862670001574,318.3067909000092,318.323334900022,320.10118340002373,x,1,0.40528040000936016,0.17614880000473931,,000017,001,2024-10-10_13h08.54.830,cpt_test,2024.2.2,60.197810003184735,2024-10-10 13h09.23.585666 -0600,
86,J,0,None,85,85,0,None,1,,,0,85,85,85,320.11439830000745,,,,,,,,,,,320.10150520000025,320.11439830000745,320.11439830000745,320.3120289000217,320.32857270000386,322.11624150001444,None,1,,,,000017,001,2024-10-10_13h08.54.830,cpt_test,2024.2.2,60.197810003184735,2024-10-10 13h09.23.585666 -0600,
87,N,0,None,86,86,0,None,1,,,0,86,86,86,322.12897489999887,,,,,,,,,,,322.11655510001583,322.12897489999887,322.12897489999887,322.31094980001217,322.34364249999635,324.11464230000274,None,1,,,,000017,001,2024-10-10_13h08.54.830,cpt_test,2024.2.2,60.197810003184735,2024-10-10 13h09.23.585666 -0600,
88,X,1,x,87,87,0,x,1,0.4051762000017334,0.18733050001901574,0,87,87,87,324.1274885000021,,,,,,,,,,,324.114956800011,324.1274885000021,324.1274885000021,324.30863990000216,324.34184130001813,326.1128922000062,x,1,0.4051762000017334,0.18733050001901574,,000017,001,2024-10-10_13h08.54.830,cpt_test,2024.2.2,60.197810003184735,2024-10-10 13h09.23.585666 -0600,
89,T,0,None,88,88,0,None,1,,,0,88,88,88,326.1255330000131,,,,,,,,,,,326.1132140000118,326.1255330000131,326.1255330000131,326.3073332000058,326.34013190001133,328.1115142000199,None,1,,,,000017,001,2024-10-10_13h08.54.830,cpt_test,2024.2.2,60.197810003184735,2024-10-10 13h09.23.585666 -0600,
90,I,0,None,89,89,0,None,1,,,0,89,89,89,328.1242802000197,,,,,,,,,,,328.11185370001476,328.1242802000197,328.1242802000197,328.3052978000196,328.3384914000053,330.1094211000018,None,1,,,,000017,001,2024-10-10_13h08.54.830,cpt_test,2024.2.2,60.197810003184735,2024-10-10 13h09.23.585666 -0600,
91,P,0,None,90,90,0,None,1,,,0,90,90,90,330.12229490000755,,,,,,,,,,,330.1097206000122,330.12229490000755,330.12229490000755,330.3040728000051,330.33780360000674,332.10944030000246,None,1,,,,000017,001,2024-10-10_13h08.54.830,cpt_test,2024.2.2,60.197810003184735,2024-10-10 13h09.23.585666 -0600,
92,X,1,x,91,91,0,x,1,0.4340219000005163,0.1897090999991633,0,91,91,91,332.12391429999843,,,,,,,,,,,332.109820600017,332.12391429999843,332.12391429999843,332.31141370002297,332.32825740001863,334.1060858000128,x,1,0.4340219000005163,0.1897090999991633,,000017,001,2024-10-10_13h08.54.830,cpt_test,2024.2.2,60.197810003184735,2024-10-10 13h09.23.585666 -0600,
93,B,0,None,92,92,0,None,1,,,0,92,92,92,334.119102800003,,,,,,,,,,,334.1064064000093,334.119102800003,334.119102800003,334.30075450000004,334.3336385000148,336.10475970001426,None,1,,,,000017,001,2024-10-10_13h08.54.830,cpt_test,2024.2.2,60.197810003184735,2024-10-10 13h09.23.585666 -0600,
94,M,0,None,93,93,0,None,1,,,0,93,93,93,336.11802980001085,,,,,,,,,,,336.1050901999988,336.11802980001085,336.11802980001085,336.31578289999743,336.33202910001273,338.1033052999992,None,1,,,,000017,001,2024-10-10_13h08.54.830,cpt_test,2024.2.2,60.197810003184735,2024-10-10 13h09.23.585666 -0600,
95,B,0,None,94,94,0,None,1,,,0,94,94,94,338.1164670000144,,,,,,,,,,,338.10364119999576,338.1164670000144,338.1164670000144,338.3139833000023,338.33031499999925,340.1011286000139,None,1,,,,000017,001,2024-10-10_13h08.54.830,cpt_test,2024.2.2,60.197810003184735,2024-10-10 13h09.23.585666 -0600,
96,I,0,None,95,95,0,None,1,,,0,95,95,95,340.11385160000646,,,,,,,,,,,340.10144880000735,340.11385160000646,340.11385160000646,340.312270800001,340.32883969999966,342.1160121000139,None,1,,,,000017,001,2024-10-10_13h08.54.830,cpt_test,2024.2.2,60.197810003184735,2024-10-10 13h09.23.585666 -0600,
97,X,1,x,96,96,0,x,1,0.5345152000081725,0.17732610000530258,0,96,96,96,342.1288529000012,,,,,,,,,,,342.11632580001606,342.1288529000012,342.1288529000012,342.31082250000327,342.3435402000032,344.1161500000162,x,1,0.5345152000081725,0.17732610000530258,,000017,001,2024-10-10_13h08.54.830,cpt_test,2024.2.2,60.197810003184735,2024-10-10 13h09.23.585666 -0600,
98,J,0,None,97,97,0,None,1,,,0,97,97,97,344.13054230000125,,,,,,,,,,,344.1165837000008,344.13054230000125,344.13054230000125,344.3090031000029,344.34215589999803,346.11323690001154,None,1,,,,000017,001,2024-10-10_13h08.54.830,cpt_test,2024.2.2,60.197810003184735,2024-10-10 13h09.23.585666 -0600,
99,X,1,x,98,98,0,x,1,0.42416389999561943,0.15818189998390153,0,98,98,98,346.1262726999994,,,,,,,,,,,346.1135348000098,346.1262726999994,346.1262726999994,346.3071128000156,346.3401369000203,348.1110368000227,x,1,0.42416389999561943,0.15818189998390153,,000017,001,2024-10-10_13h08.54.830,cpt_test,2024.2.2,60.197810003184735,2024-10-10 13h09.23.585666 -0600,
100,U,0,None,99,99,0,None,1,,,0,99,99,99,348.12425780002377,,,,,,,,,,,348.1113604000129,348.12425780002377,348.12425780002377,348.3100170000107,348.3218568000011,350.10993500001496,None,1,,,,000017,001,2024-10-10_13h08.54.830,cpt_test,2024.2.2,60.197810003184735,2024-10-10 13h09.23.585666 -0600,
101,D,0,None,100,100,0,None,1,,,0,100,100,100,350.1229600000079,,,,,,,,,,,350.11024239999824,350.1229600000079,350.1229600000079,350.3040642999986,350.33702220002306,352.10813970002346,None,1,,,,000017,001,2024-10-10_13h08.54.830,cpt_test,2024.2.2,60.197810003184735,2024-10-10 13h09.23.585666 -0600,
102,X,1,x,101,101,0,x,1,0.4625802999944426,0.18578339999658056,0,101,101,101,352.12114380000276,,,,,,,,,,,352.1084433000069,352.12114380000276,352.12114380000276,352.30234070000006,352.3355569000123,354.1075676000037,x,1,0.4625802999944426,0.18578339999658056,,000017,001,2024-10-10_13h08.54.830,cpt_test,2024.2.2,60.197810003184735,2024-10-10 13h09.23.585666 -0600,
103,X,1,x,102,102,0,x,1,0.39440469999681227,0.19539609999628738,0,102,102,102,354.1175984000147,,,,,,,,,,,354.10797720000846,354.1175984000147,354.1175984000147,354.30083750002086,354.3170236000151,356.1050879000104,x,1,0.39440469999681227,0.19539609999628738,,000017,001,2024-10-10_13h08.54.830,cpt_test,2024.2.2,60.197810003184735,2024-10-10 13h09.23.585666 -0600,
104,N,0,None,103,103,0,None,1,,,0,103,103,103,356.1179092999955,,,,,,,,,,,356.10543530000723,356.1179092999955,356.1179092999955,356.31601770001,356.3322465000092,358.10321800000384,None,1,,,,000017,001,2024-10-10_13h08.54.830,cpt_test,2024.2.2,60.197810003184735,2024-10-10 13h09.23.585666 -0600,
105,U,0,None,104,104,0,None,1,,,0,104,104,104,358.1157918999961,,,,,,,,,,,358.1035320000083,358.1157918999961,358.1157918999961,358.3140718000068,358.33057089999784,360.10199130000547,None,1,,,,000017,001,2024-10-10_13h08.54.830,cpt_test,2024.2.2,60.197810003184735,2024-10-10 13h09.23.585666 -0600,
106,T,0,None,105,105,0,None,1,,,0,105,105,105,360.11484200000996,,,,,,,,,,,360.1023036999977,360.11484200000996,360.11484200000996,360.31235520000337,360.32896780001465,362.1163722000201,None,1,,,,000017,001,2024-10-10_13h08.54.830,cpt_test,2024.2.2,60.197810003184735,2024-10-10 13h09.23.585666 -0600,
107,W,0,None,106,106,0,None,1,,,0,106,106,106,362.129511600011,,,,,,,,,,,362.11667770001804,362.129511600011,362.129511600011,362.31086009999854,362.3437922000012,364.1151052000059,None,1,,,,000017,001,2024-10-10_13h08.54.830,cpt_test,2024.2.2,60.197810003184735,2024-10-10 13h09.23.585666 -0600,
108,N,0,None,107,107,0,None,1,,,0,107,107,107,364.1281145999965,,,,,,,,,,,364.11541790000047,364.1281145999965,364.1281145999965,364.30911830000696,364.3423250000051,366.1132809999981,None,1,,,,000017,001,2024-10-10_13h08.54.830,cpt_test,2024.2.2,60.197810003184735,2024-10-10 13h09.23.585666 -0600,
109,R,0,None,108,108,0,None,1,,,0,108,108,108,366.12628440000117,,,,,,,,,,,366.11358070001006,366.12628440000117,366.12628440000117,366.3130299000186,366.3345799000235,368.11150940001244,None,1,,,,000017,001,2024-10-10_13h08.54.830,cpt_test,2024.2.2,60.197810003184735,2024-10-10 13h09.23.585666 -0600,
110,X,1,x,109,109,0,x,1,0.48864870000397786,0.18557010000222363,0,109,109,109,368.12430160000804,,,,,,,,,,,368.1118106000067,368.12430160000804,368.12430160000804,368.3060505000176,368.3388621000049,370.109617500013,x,1,0.48864870000397786,0.18557010000222363,,000017,001,2024-10-10_13h08.54.830,cpt_test,2024.2.2,60.197810003184735,2024-10-10 13h09.23.585666 -0600,
111,A,0,None,110,110,0,None,1,,,0,110,110,110,370.1225207000098,,,,,,,,,,,370.1099351000157,370.1225207000098,370.1225207000098,370.3052192000032,370.3216548000055,372.10820030001923,None,1,,,,000017,001,2024-10-10_13h08.54.830,cpt_test,2024.2.2,60.197810003184735,2024-10-10 13h09.23.585666 -0600,
112,X,1,x,111,111,0,x,1,0.44304700000793673,0.20472919999156147,0,111,111,111,372.12092030001804,,,,,,,,,,,372.1085168000136,372.12092030001804,372.12092030001804,372.302350700018,372.3352788000193,374.1066064000188,x,1,0.44304700000793673,0.20472919999156147,,000017,001,2024-10-10_13h08.54.830,cpt_test,2024.2.2,60.197810003184735,2024-10-10 13h09.23.585666 -0600,
113,G,0,None,112,112,0,None,1,,,0,112,112,112,374.1197998000134,,,,,,,,,,,374.10692660001223,374.1197998000134,374.1197998000134,374.30113530001836,374.333872600022,376.10496880000574,None,1,,,,000017,001,2024-10-10_13h08.54.830,cpt_test,2024.2.2,60.197810003184735,2024-10-10 13h09.23.585666 -0600,
114,O,0,None,113,113,0,None,1,,,0,113,113,113,376.117819600011,,,,,,,,,,,376.1052674000093,376.117819600011,376.117819600011,376.3161605000205,376.3323065000004,378.1058269000205,None,1,,,,000017,001,2024-10-10_13h08.54.830,cpt_test,2024.2.2,60.197810003184735,2024-10-10 13h09.23.585666 -0600,
115,U,0,None,114,114,0,None,1,,,0,114,114,114,378.12050839999574,,,,,,,,,,,378.1062297000026,378.12050839999574,378.12050839999574,378.31448070000624,378.33059880000656,380.1033656000218,None,1,,,,000017,001,2024-10-10_13h08.54.830,cpt_test,2024.2.2,60.197810003184735,2024-10-10 13h09.23.585666 -0600,
116,X,1,x,115,115,0,x,1,0.4300613999948837,0.19363709999015555,0,115,115,115,380.11797420002404,,,,,,,,,,,380.10378020000644,380.11797420002404,380.11797420002404,380.3125786000164,380.3291708000179,382.1018243000144,x,1,0.4300613999948837,0.19363709999015555,,000017,001,2024-10-10_13h08.54.830,cpt_test,2024.2.2,60.197810003184735,2024-10-10 13h09.23.585666 -0600,
117,X,1,x,116,116,0,x,1,0.4418759999971371,0.18167479999829084,0,116,116,116,382.1112589999975,,,,,,,,,,,382.10224460001336,382.1112589999975,382.1112589999975,382.3140338000085,382.3140338000085,384.10413960000733,x,1,0.4418759999971371,0.18167479999829084,,000017,001,2024-10-10_13h08.54.830,cpt_test,2024.2.2,60.197810003184735,2024-10-10 13h09.23.585666 -0600,
118,C,0,None,117,117,0,None,1,,,0,117,117,117,384.1184586000163,,,,,,,,,,,384.10469239999657,384.1184586000163,384.1184586000163,384.31071910000173,384.32561680002254,386.1138512000034,None,1,,,,000017,001,2024-10-10_13h08.54.830,cpt_test,2024.2.2,60.197810003184735,2024-10-10 13h09.23.585666 -0600,
119,A,0,None,118,118,0,None,1,,,0,118,118,118,386.1267278000014,,,,,,,,,,,386.11420920002274,386.1267278000014,386.1267278000014,386.3088876999973,386.3432682999992,388.111945200013,None,1,,,,000017,001,2024-10-10_13h08.54.830,cpt_test,2024.2.2,60.197810003184735,2024-10-10 13h09.23.585666 -0600,
120,X,1,x,119,119,0,x,1,0.4370047000120394,0.19435999999404885,0,119,119,119,388.12540060002357,,,,,,,,,,,388.1122878000024,388.12540060002357,388.12540060002357,388.3060970000224,388.3392564000096,390.11865410002065,x,1,0.4370047000120394,0.19435999999404885,,000017,001,2024-10-10_13h08.54.830,cpt_test,2024.2.2,60.197810003184735,2024-10-10 13h09.23.585666 -0600,
121,H,0,None,120,120,0,None,1,,,0,120,120,120,390.13579910001135,,,,,,,,,,,390.119242500019,390.13579910001135,390.13579910001135,390.3045776000072,390.3374179000093,392.1142256000021,None,1,,,392.10714930001996,000017,001,2024-10-10_13h08.54.830,cpt_test,2024.2.2,60.197810003184735,2024-10-10 13h09.23.585666 -0600,
122,M,0,None,121,121,0,None,1,,,0,121,121,121,392.12807690000045,,,,,,,,,,,392.11458819999825,392.12807690000045,392.12807690000045,392.30304729999625,392.33583520000684,394.1070605000132,None,1,,,,000017,001,2024-10-10_13h08.54.830,cpt_test,2024.2.2,60.197810003184735,2024-10-10 13h09.23.585666 -0600,
123,V,0,None,122,122,0,None,1,,,0,122,122,122,394.11992990001454,,,,,,,,,,,394.1073846000072,394.11992990001454,394.11992990001454,394.3013886999979,394.33416120000766,396.1063709000009,None,1,,,,000017,001,2024-10-10_13h08.54.830,cpt_test,2024.2.2,60.197810003184735,2024-10-10 13h09.23.585666 -0600,
124,K,0,None,123,123,0,None,1,,,0,123,123,123,396.12011980000534,,,,,,,,,,,396.10674930000096,396.12011980000534,396.12011980000534,396.2997010000108,396.3324818999972,398.1035837000236,None,1,,,,000017,001,2024-10-10_13h08.54.830,cpt_test,2024.2.2,60.197810003184735,2024-10-10 13h09.23.585666 -0600,
125,G,0,None,124,124,0,None,1,,,0,124,124,124,398.11667970000417,,,,,,,,,,,398.10390119999647,398.11667970000417,398.11667970000417,398.3101906000229,398.3311342000088,400.1019154000096,None,1,,,,000017,001,2024-10-10_13h08.54.830,cpt_test,2024.2.2,60.197810003184735,2024-10-10 13h09.23.585666 -0600,
126,A,0,None,125,125,0,None,1,,,0,125,125,125,400.11531550000655,,,,,,,,,,,400.10221510002157,400.11531550000655,400.11531550000655,400.312994500011,400.3291358000133,402.1123685000057,None,1,,,,000017,001,2024-10-10_13h08.54.830,cpt_test,2024.2.2,60.197810003184735,2024-10-10 13h09.23.585666 -0600,
127,X,1,x,126,126,0,x,1,0.3463550999877043,0.1840661000169348,0,126,126,126,402.12653050001245,,,,,,,,,,,402.1127147000225,402.12653050001245,402.12653050001245,402.3111598000105,402.32768760001636,404.1165652000054,x,1,0.3463550999877043,0.1840661000169348,,000017,001,2024-10-10_13h08.54.830,cpt_test,2024.2.2,60.197810003184735,2024-10-10 13h09.23.585666 -0600,
128,N,0,None,127,127,0,None,1,,,0,127,127,127,404.1316193000239,,,,,,,,,,,404.1169684000197,404.1316193000239,404.1316193000239,404.30148930000723,404.33559329999844,406.1137439000013,None,1,,,406.1079240000108,000017,001,2024-10-10_13h08.54.830,cpt_test,2024.2.2,60.197810003184735,2024-10-10 13h09.23.585666 -0600,
129,Y,0,None,128,128,0,None,1,,,0,128,128,128,406.12673899999936,,,,,,,,,,,406.1140368000197,406.12673899999936,406.12673899999936,406.30887850001454,406.34279160000733,408.11173990002135,None,1,,,,000017,001,2024-10-10_13h08.54.830,cpt_test,2024.2.2,60.197810003184735,2024-10-10 13h09.23.585666 -0600,
130,W,0,None,129,129,0,None,1,,,0,129,129,129,408.1248722000164,,,,,,,,,,,408.11204540001927,408.1248722000164,408.1248722000164,408.30636000001687,408.33920300001046,410.11043690002407,None,1,,,,000017,001,2024-10-10_13h08.54.830,cpt_test,2024.2.2,60.197810003184735,2024-10-10 13h09.23.585666 -0600,
131,L,0,None,130,130,0,None,1,,,0,130,130,130,410.1233332999982,,,,,,,,,,,410.1107545999985,410.1233332999982,410.1233332999982,410.30454559999635,410.33760020000045,412.10998050001217,None,1,,,,000017,001,2024-10-10_13h08.54.830,cpt_test,2024.2.2,60.197810003184735,2024-10-10 13h09.23.585666 -0600,
132,F,0,None,131,131,0,None,1,,,0,131,131,131,412.1238527999958,,,,,,,,,,,412.1103990999982,412.1238527999958,412.1238527999958,412.30316400001175,412.34066580000217,414.11822070000926,None,1,,,414.10797520002234,000017,001,2024-10-10_13h08.54.830,cpt_test,2024.2.2,60.197810003184735,2024-10-10 13h09.23.585666 -0600,
133,E,0,None,132,132,0,None,1,,,0,132,132,132,414.1363801000116,,,,,,,,,,,414.1187503999972,414.1363801000116,414.1363801000116,414.29939510000986,414.3446296000038,416.10427380001056,None,1,,,,000017,001,2024-10-10_13h08.54.830,cpt_test,2024.2.2,60.197810003184735,2024-10-10 13h09.23.585666 -0600,
134,L,0,None,133,133,0,None,1,,,0,133,133,133,416.12021140000434,,,,,,,,,,,416.10480890001054,416.12021140000434,416.12021140000434,416.299565000023,416.33284200000344,418.10406320000766,None,1,,,,000017,001,2024-10-10_13h08.54.830,cpt_test,2024.2.2,60.197810003184735,2024-10-10 13h09.23.585666 -0600,
135,K,0,None,134,134,0,None,1,,,0,134,134,134,418.11719800002174,,,,,,,,,,,418.10437830002047,418.11719800002174,418.11719800002174,418.314721200004,418.3309764000005,420.1021968999994,None,1,,,,000017,001,2024-10-10_13h08.54.830,cpt_test,2024.2.2,60.197810003184735,2024-10-10 13h09.23.585666 -0600,
136,Q,0,None,135,135,0,None,1,,,0,135,135,135,420.1153161000111,,,,,,,,,,,420.10250619999715,420.1153161000111,420.1153161000111,420.3131015000108,420.3296328000142,422.1007578000135,None,1,,,,000017,001,2024-10-10_13h08.54.830,cpt_test,2024.2.2,60.197810003184735,2024-10-10 13h09.23.585666 -0600,
137,X,1,x,136,136,0,x,1,0.4532259000116028,0.1806724999914877,0,136,136,136,422.11393750002026,,,,,,,,,,,422.1010727999965,422.11393750002026,422.11393750002026,422.3113738000102,422.32786410002154,424.11563890002435,x,1,0.4532259000116028,0.1806724999914877,,000017,001,2024-10-10_13h08.54.830,cpt_test,2024.2.2,60.197810003184735,2024-10-10 13h09.23.585666 -0600,
138,J,0,None,137,137,0,None,1,,,0,137,137,137,424.1286563000176,,,,,,,,,,,424.1159674000228,424.1286563000176,424.1286563000176,424.3098033000133,424.3428652000148,426.10969780001324,None,1,,,,000017,001,2024-10-10_13h08.54.830,cpt_test,2024.2.2,60.197810003184735,2024-10-10 13h09.23.585666 -0600,
139,X,1,x,138,138,0,x,1,0.4231527999800164,0.17396200000075623,0,138,138,138,426.1220115000033,,,,,,,,,,,426.1099965000176,426.1220115000033,426.1220115000033,426.30820890000905,426.32460390002234,428.11206590000074,x,1,0.4231527999800164,0.17396200000075623,,000017,001,2024-10-10_13h08.54.830,cpt_test,2024.2.2,60.197810003184735,2024-10-10 13h09.23.585666 -0600,
140,E,0,None,139,139,0,None,1,,,0,139,139,139,428.1254825000069,,,,,,,,,,,428.11239419999765,428.1254825000069,428.1254825000069,428.30652020001435,428.3394257000182,430.1101299000147,None,1,,,,000017,001,2024-10-10_13h08.54.830,cpt_test,2024.2.2,60.197810003184735,2024-10-10 13h09.23.585666 -0600,
141,T,0,None,140,140,0,None,1,,,0,140,140,140,430.12295030002133,,,,,,,,,,,430.11042579999776,430.12295030002133,430.12295030002133,430.3049610000162,430.3379344000132,432.10905590001494,None,1,,,,000017,001,2024-10-10_13h08.54.830,cpt_test,2024.2.2,60.197810003184735,2024-10-10 13h09.23.585666 -0600,
142,X,1,x,141,141,0,x,1,0.4238084999960847,0.16203999999561347,0,141,141,141,432.1220617000072,,,,,,,,,,,432.10936870001024,432.1220617000072,432.1220617000072,432.3031106000126,432.33627970001544,434.10734930000035,x,1,0.4238084999960847,0.16203999999561347,,000017,001,2024-10-10_13h08.54.830,cpt_test,2024.2.2,60.197810003184735,2024-10-10 13h09.23.585666 -0600,
143,Q,0,None,142,142,0,None,1,,,0,142,142,142,434.12053890002426,,,,,,,,,,,434.10768250000547,434.12053890002426,434.12053890002426,434.3017572000099,434.3345443000144,436.10565410001436,None,1,,,,000017,001,2024-10-10_13h08.54.830,cpt_test,2024.2.2,60.197810003184735,2024-10-10 13h09.23.585666 -0600,
144,V,0,None,143,143,0,None,1,,,0,143,143,143,436.11830040000496,,,,,,,,,,,436.1059774000023,436.11830040000496,436.11830040000496,436.3000861000037,436.33300030001556,438.10512890000246,None,1,,,,000017,001,2024-10-10_13h08.54.830,cpt_test,2024.2.2,60.197810003184735,2024-10-10 13h09.23.585666 -0600,
145,Y,0,None,144,144,0,None,1,,,0,144,144,144,438.117338400014,,,,,,,,,,,438.10540630001924,438.117338400014,438.117338400014,438.3150128000125,438.33123420001357,440.1021873000136,None,1,,,,000017,001,2024-10-10_13h08.54.830,cpt_test,2024.2.2,60.197810003184735,2024-10-10 13h09.23.585666 -0600,
146,O,0,None,145,145,0,None,1,,,0,145,145,145,440.11511730001075,,,,,,,,,,,440.1025107000023,440.11511730001075,440.11511730001075,440.31346750000375,440.3295381000207,442.10075770001276,None,1,,,,000017,001,2024-10-10_13h08.54.830,cpt_test,2024.2.2,60.197810003184735,2024-10-10 13h09.23.585666 -0600,
147,T,0,None,146,146,0,None,1,,,0,146,146,146,442.11367439999594,,,,,,,,,,,442.1010574999964,442.11367439999594,442.11367439999594,442.31174050000845,442.328184700018,444.11587530002,None,1,,,,000017,001,2024-10-10_13h08.54.830,cpt_test,2024.2.2,60.197810003184735,2024-10-10 13h09.23.585666 -0600,
148,X,1,x,147,147,0,x,1,0.38290949998190627,0.163468799990369,0,147,147,147,444.128812400013,,,,,,,,,,,444.1161891000229,444.128812400013,444.128812400013,444.31099490000634,444.34453640002175,446.1154639000015,x,1,0.38290949998190627,0.163468799990369,,000017,001,2024-10-10_13h08.54.830,cpt_test,2024.2.2,60.197810003184735,2024-10-10 13h09.23.585666 -0600,
149,T,0,None,148,148,0,None,1,,,0,148,148,148,446.12846220002393,,,,,,,,,,,446.11586170000373,446.12846220002393,446.12846220002393,446.30840290000197,446.3412303000223,448.11252950000926,None,1,,,448.10660490000737,000017,001,2024-10-10_13h08.54.830,cpt_test,2024.2.2,60.197810003184735,2024-10-10 13h09.23.585666 -0600,
150,S,0,None,149,149,0,None,1,,,0,149,149,149,448.1259769000171,,,,,,,,,,,448.1128411000245,448.1259769000171,448.1259769000171,448.30726140001207,448.3409511000209,450.11114020002424,None,1,,,,000017,001,2024-10-10_13h08.54.830,cpt_test,2024.2.2,60.197810003184735,2024-10-10 13h09.23.585666 -0600,
151,L,0,None,150,150,0,None,1,,,0,150,150,150,450.1235881000175,,,,,,,,,,,450.11144420001074,450.1235881000175,450.1235881000175,450.30513290001545,450.33796110001276,452.11041990001104,None,1,,,,000017,001,2024-10-10_13h08.54.830,cpt_test,2024.2.2,60.197810003184735,2024-10-10 13h09.23.585666 -0600,
152,V,0,None,151,151,0,None,1,,,0,151,151,151,452.12314510002034,,,,,,,,,,,452.1107665000018,452.12314510002034,452.12314510002034,452.3033846000035,452.3362415000156,454.10753530001966,None,1,,,,000017,001,2024-10-10_13h08.54.830,cpt_test,2024.2.2,60.197810003184735,2024-10-10 13h09.23.585666 -0600,
153,C,0,None,152,152,0,None,1,,,0,152,152,152,454.12062150001293,,,,,,,,,,,454.10784320000676,454.12062150001293,454.12062150001293,454.30300149999675,454.3194599999988,456.10680670000147,None,1,,,,000017,001,2024-10-10_13h08.54.830,cpt_test,2024.2.2,60.197810003184735,2024-10-10 13h09.23.585666 -0600,
154,U,0,None,153,153,0,None,1,,,0,153,153,153,456.1219662000076,,,,,,,,,,,456.10717830000794,456.1219662000076,456.1219662000076,456.30633240001043,456.3211238000076,458.104313000018,None,1,,,,000017,001,2024-10-10_13h08.54.830,cpt_test,2024.2.2,60.197810003184735,2024-10-10 13h09.23.585666 -0600,
155,X,1,x,154,154,0,x,1,0.5024794999917503,0.2055566000053659,0,154,154,154,458.1167505000194,,,,,,,,,,,458.1045404000033,458.1167505000194,458.1167505000194,458.3150744000159,458.33158330002334,460.11704460001783,x,1,0.5024794999917503,0.2055566000053659,,000017,001,2024-10-10_13h08.54.830,cpt_test,2024.2.2,60.197810003184735,2024-10-10 13h09.23.585666 -0600,
156,X,1,x,155,155,0,x,1,0.39825820000260137,0.1765634999901522,0,155,155,155,460.1299939000164,,,,,,,,,,,460.1172452000028,460.1299939000164,460.1299939000164,460.3131062000175,460.3295846999972,462.1143068000092,x,1,0.39825820000260137,0.1765634999901522,,000017,001,2024-10-10_13h08.54.830,cpt_test,2024.2.2,60.197810003184735,2024-10-10 13h09.23.585666 -0600,
157,L,0,None,156,156,0,None,1,,,0,156,156,156,462.1282273000106,,,,,,,,,,,462.1144748000079,462.1282273000106,462.1282273000106,462.31134600000223,462.32790060000843,464.1152108999959,None,1,,,,000017,001,2024-10-10_13h08.54.830,cpt_test,2024.2.2,60.197810003184735,2024-10-10 13h09.23.585666 -0600,
158,W,0,None,157,157,0,None,1,,,0,157,157,157,464.1279210000066,,,,,,,,,,,464.1155087000225,464.1279210000066,464.1279210000066,464.3102543000132,464.3428070000082,466.11402890001773,None,1,,,,000017,001,2024-10-10_13h08.54.830,cpt_test,2024.2.2,60.197810003184735,2024-10-10 13h09.23.585666 -0600,
159,A,0,None,158,158,0,None,1,,,0,158,158,158,466.12564830001793,,,,,,,,,,,466.11426950001623,466.12564830001793,466.12564830001793,466.308291000023,466.3245496000163,468.1119871000119,None,1,,,,000017,001,2024-10-10_13h08.54.830,cpt_test,2024.2.2,60.197810003184735,2024-10-10 13h09.23.585666 -0600,
160,X,1,x,159,159,0,x,1,0.47524780000094324,0.20444880001014099,0,159,159,159,468.12473110001883,,,,,,,,,,,468.1122854000132,468.12473110001883,468.12473110001883,468.3065819000185,468.33955520001473,470.11041370002204,x,1,0.47524780000094324,0.20444880001014099,,000017,001,2024-10-10_13h08.54.830,cpt_test,2024.2.2,60.197810003184735,2024-10-10 13h09.23.585666 -0600,
161,A,0,None,160,160,0,None,1,,,0,160,160,160,470.1231654000003,,,,,,,,,,,470.1107268000196,470.1231654000003,470.1231654000003,470.3048754000047,470.33794769999804,472.1081727000128,None,1,,,,000017,001,2024-10-10_13h08.54.830,cpt_test,2024.2.2,60.197810003184735,2024-10-10 13h09.23.585666 -0600,
162,M,0,None,161,161,0,None,1,,,0,161,161,161,472.1202674000233,,,,,,,,,,,472.1084114999976,472.1202674000233,472.1202674000233,472.30340440000873,472.31963660000474,474.1074069000024,None,1,,,,000017,001,2024-10-10_13h08.54.830,cpt_test,2024.2.2,60.197810003184735,2024-10-10 13h09.23.585666 -0600,
163,X,1,x,162,162,0,x,1,0.42510749999200925,0.17388790001859888,0,162,162,162,474.12026520000654,,,,,,,,,,,474.1077241000021,474.12026520000654,474.12026520000654,474.301574800018,474.33465750000323,476.1054025000194,x,1,0.42510749999200925,0.17388790001859888,,000017,001,2024-10-10_13h08.54.830,cpt_test,2024.2.2,60.197810003184735,2024-10-10 13h09.23.585666 -0600,
164,X,1,x,163,163,0,x,1,0.4312318000011146,0.1906957000028342,0,163,163,163,476.116943800007,,,,,,,,,,,476.10572550000506,476.116943800007,476.116943800007,476.30010170000605,476.31643490001443,478.1045164000243,x,1,0.4312318000011146,0.1906957000028342,,000017,001,2024-10-10_13h08.54.830,cpt_test,2024.2.2,60.197810003184735,2024-10-10 13h09.23.585666 -0600,
165,K,0,None,164,164,0,None,1,,,0,164,164,164,478.1171653000056,,,,,,,,,,,478.10484980000183,478.1171653000056,478.1171653000056,478.31541730000754,478.33177830002387,480.1024365000194,None,1,,,,000017,001,2024-10-10_13h08.54.830,cpt_test,2024.2.2,60.197810003184735,2024-10-10 13h09.23.585666 -0600,
166,X,1,x,165,165,0,x,1,0.4328979999991134,0.17237879999447614,0,165,165,165,480.1148867000011,,,,,,,,,,,480.10272950000945,480.1148867000011,480.1148867000011,480.3135320000001,480.33007379999617,482.10098210000433,x,1,0.4328979999991134,0.17237879999447614,,000017,001,2024-10-10_13h08.54.830,cpt_test,2024.2.2,60.197810003184735,2024-10-10 13h09.23.585666 -0600,
167,M,0,None,166,166,0,None,1,,,0,166,166,166,482.1140362000151,,,,,,,,,,,482.101293100015,482.1140362000151,482.1140362000151,482.3120517000207,482.32842320000054,484.1006030999997,None,1,,,,000017,001,2024-10-10_13h08.54.830,cpt_test,2024.2.2,60.197810003184735,2024-10-10 13h09.23.585666 -0600,
168,X,1,x,167,167,0,x,1,0.4043288999819197,0.17184150000684895,0,167,167,167,484.1153537000064,,,,,,,,,,,484.1009794000129,484.1153537000064,484.1153537000064,484.3105370000121,484.3268112000078,486.1143754000077,x,1,0.4043288999819197,0.17184150000684895,,000017,001,2024-10-10_13h08.54.830,cpt_test,2024.2.2,60.197810003184735,2024-10-10 13h09.23.585666 -0600,
169,A,0,None,168,168,0,None,1,,,0,168,168,168,486.12736750001204,,,,,,,,,,,486.11468450000393,486.12736750001204,486.12736750001204,486.30879959999584,486.34183680001297,488.1128303000005,None,1,,,,000017,001,2024-10-10_13h08.54.830,cpt_test,2024.2.2,60.197810003184735,2024-10-10 13h09.23.585666 -0600,
170,X,1,x,169,169,0,x,1,0.3809346000198275,0.16506569998455234,0,169,169,169,488.1260152000177,,,,,,,,,,,488.1131416000135,488.1260152000177,488.1260152000177,488.3071351000108,488.3402091000171,490.1097263999982,x,1,0.3809346000198275,0.16506569998455234,,000017,001,2024-10-10_13h08.54.830,cpt_test,2024.2.2,60.197810003184735,2024-10-10 13h09.23.585666 -0600,
171,L,0,None,170,170,0,None,1,,,0,170,170,170,490.1221471000172,,,,,,,,,,,490.11000690000947,490.1221471000172,490.1221471000172,490.3054614000139,490.3219125000178,492.10959010000806,None,1,,,,000017,001,2024-10-10_13h08.54.830,cpt_test,2024.2.2,60.197810003184735,2024-10-10 13h09.23.585666 -0600,
172,E,0,None,171,171,0,None,1,,,0,171,171,171,492.1224696999998,,,,,,,,,,,492.10988950001774,492.1224696999998,492.1224696999998,492.3039015000104,492.33671230002074,494.10801789999823,None,1,,,,000017,001,2024-10-10_13h08.54.830,cpt_test,2024.2.2,60.197810003184735,2024-10-10 13h09.23.585666 -0600,
173,T,0,None,172,172,0,None,1,,,0,172,172,172,494.1212314000004,,,,,,,,,,,494.10833450002247,494.1212314000004,494.1212314000004,494.30219040001975,494.33524159999797,496.10770300001604,None,1,,,,000017,001,2024-10-10_13h08.54.830,cpt_test,2024.2.2,60.197810003184735,2024-10-10 13h09.23.585666 -0600,
174,F,0,None,173,173,0,None,1,,,0,173,173,173,496.1210161000199,,,,,,,,,,,496.1081137000001,496.1210161000199,496.1210161000199,496.30033090000506,496.33356070000445,498.10697860000073,None,1,,,498.09983069999726,000017,001,2024-10-10_13h08.54.830,cpt_test,2024.2.2,60.197810003184735,2024-10-10 13h09.23.585666 -0600,
175,M,0,None,174,174,0,None,1,,,0,174,174,174,498.121538300009,,,,,,,,,,,498.1073490999988,498.121538300009,498.121538300009,498.3094998000015,498.32427370001096,500.10436960001243,None,1,,,,000017,001,2024-10-10_13h08.54.830,cpt_test,2024.2.2,60.197810003184735,2024-10-10 13h09.23.585666 -0600,
176,Q,0,None,175,175,0,None,1,,,0,175,175,175,500.1191090000211,,,,,,,,,,,500.10474370000884,500.1191090000211,500.1191090000211,500.3059659000137,500.32247270000516,502.10100350002176,None,1,,,,000017,001,2024-10-10_13h08.54.830,cpt_test,2024.2.2,60.197810003184735,2024-10-10 13h09.23.585666 -0600,
177,M,0,None,176,176,0,None,1,,,0,176,176,176,502.1139231999987,,,,,,,,,,,502.10131430000183,502.1139231999987,502.1139231999987,502.31227220001165,502.32845990001806,504.11632790000294,None,1,,,,000017,001,2024-10-10_13h08.54.830,cpt_test,2024.2.2,60.197810003184735,2024-10-10 13h09.23.585666 -0600,
178,X,1,x,177,177,0,x,1,0.3492405000142753,0.1997413999924902,0,177,177,177,504.1293215000187,,,,,,,,,,,504.1166250000242,504.1293215000187,504.1293215000187,504.31065230001695,504.34349250001833,506.1148145000043,x,1,0.3492405000142753,0.1997413999924902,,000017,001,2024-10-10_13h08.54.830,cpt_test,2024.2.2,60.197810003184735,2024-10-10 13h09.23.585666 -0600,
179,V,0,None,178,178,0,None,1,,,0,178,178,178,506.12817630000063,,,,,,,,,,,506.1151337000192,506.12817630000063,506.12817630000063,506.3088171000127,506.3418425999989,508.1129026999988,None,1,,,,000017,001,2024-10-10_13h08.54.830,cpt_test,2024.2.2,60.197810003184735,2024-10-10 13h09.23.585666 -0600,
180,M,0,None,179,179,0,None,1,,,0,179,179,179,508.126044500008,,,,,,,,,,,508.11321280000266,508.126044500008,508.126044500008,508.30751910002436,508.340139500011,510.11154450001777,None,1,,,,000017,001,2024-10-10_13h08.54.830,cpt_test,2024.2.2,60.197810003184735,2024-10-10 13h09.23.585666 -0600,
181,P,0,None,180,180,0,None,1,,,0,180,180,180,510.124618700007,,,,,,,,,,,510.1118878000125,510.124618700007,510.124618700007,510.310284200008,510.3250586000213,512.1111890000175,None,1,,,,000017,001,2024-10-10_13h08.54.830,cpt_test,2024.2.2,60.197810003184735,2024-10-10 13h09.23.585666 -0600,
182,K,0,None,181,181,0,None,1,,,0,181,181,181,512.1243580000009,,,,,,,,,,,512.1115638000192,512.1243580000009,512.1243580000009,512.304088600009,512.3368764000188,514.1077634000103,None,1,,,,000017,001,2024-10-10_13h08.54.830,cpt_test,2024.2.2,60.197810003184735,2024-10-10 13h09.23.585666 -0600,
183,V,0,None,182,182,0,None,1,,,0,182,182,182,514.120623099996,,,,,,,,,,,514.1080597999971,514.120623099996,514.120623099996,514.3024110000115,514.3351839999959,516.1032362999977,None,1,,,,000017,001,2024-10-10_13h08.54.830,cpt_test,2024.2.2,60.197810003184735,2024-10-10 13h09.23.585666 -0600,
184,G,0,None,183,183,0,None,1,,,0,183,183,183,516.1162508999987,,,,,,,,,,,516.103543300007,516.1162508999987,516.1162508999987,516.3008943000168,516.3168876999989,518.1047361000092,None,1,,,,000017,001,2024-10-10_13h08.54.830,cpt_test,2024.2.2,60.197810003184735,2024-10-10 13h09.23.585666 -0600,
185,L,0,None,184,184,0,None,1,,,0,184,184,184,518.1179526000051,,,,,,,,,,,518.1050581000163,518.1179526000051,518.1179526000051,518.3179205000051,518.3393717000145,520.120302700001,None,1,,,,000017,001,2024-10-10_13h08.54.830,cpt_test,2024.2.2,60.197810003184735,2024-10-10 13h09.23.585666 -0600,
186,Q,0,None,185,185,0,None,1,,,0,185,185,185,520.1378666000091,,,,,,,,,,,520.1208318000135,520.1378666000091,520.1378666000091,520.3004966000153,520.347148300003,522.1025159000128,None,1,,,,000017,001,2024-10-10_13h08.54.830,cpt_test,2024.2.2,60.197810003184735,2024-10-10 13h09.23.585666 -0600,
187,N,0,None,186,186,0,None,1,,,0,186,186,186,522.1174735999957,,,,,,,,,,,522.1029031000216,522.1174735999957,522.1174735999957,522.3040965000109,522.3207025000011,524.10081980002,None,1,,,,000017,001,2024-10-10_13h08.54.830,cpt_test,2024.2.2,60.197810003184735,2024-10-10 13h09.23.585666 -0600,
188,K,0,None,187,187,0,None,1,,,0,187,187,187,524.1147152000049,,,,,,,,,,,524.1012020000198,524.1147152000049,524.1147152000049,524.311709200003,524.3269379000121,526.1164573999995,None,1,,,,000017,001,2024-10-10_13h08.54.830,cpt_test,2024.2.2,60.197810003184735,2024-10-10 13h09.23.585666 -0600,
189,C,0,None,188,188,0,None,1,,,0,188,188,188,526.1304980000132,,,,,,,,,,,526.1168386000209,526.1304980000132,526.1304980000132,526.3005577000149,526.334494300012,528.1075919000141,None,1,,,,000017,001,2024-10-10_13h08.54.830,cpt_test,2024.2.2,60.197810003184735,2024-10-10 13h09.23.585666 -0600,
190,Z,0,None,189,189,0,None,1,,,0,189,189,189,528.1243263000215,,,,,,,,,,,528.1081564000051,528.1243263000215,528.1243263000215,528.3078518999973,528.3237063999986,530.1149831000075,None,1,,,,000017,001,2024-10-10_13h08.54.830,cpt_test,2024.2.2,60.197810003184735,2024-10-10 13h09.23.585666 -0600,
191,I,0,None,190,190,0,None,1,,,0,190,190,190,530.1322966000007,,,,,,,,,,,530.1155174000014,530.1322966000007,530.1322966000007,530.3002944000182,530.3303906000219,532.1099860999966,None,1,,,532.1040452000161,000017,001,2024-10-10_13h08.54.830,cpt_test,2024.2.2,60.197810003184735,2024-10-10 13h09.23.585666 -0600,
192,J,0,None,191,191,0,None,1,,,0,191,191,191,532.1229639000085,,,,,,,,,,,532.1102940000128,532.1229639000085,532.1229639000085,532.3039668000129,532.337271700002,534.1079650000029,None,1,,,,000017,001,2024-10-10_13h08.54.830,cpt_test,2024.2.2,60.197810003184735,2024-10-10 13h09.23.585666 -0600,
193,X,1,x,192,192,0,x,1,0.4549760000081733,0.1920428000157699,0,192,192,192,534.1209309000114,,,,,,,,,,,534.108258399996,534.1209309000114,534.1209309000114,534.3023707999964,534.3354693000147,536.1070599000086,x,1,0.4549760000081733,0.1920428000157699,,000017,001,2024-10-10_13h08.54.830,cpt_test,2024.2.2,60.197810003184735,2024-10-10 13h09.23.585666 -0600,
194,E,0,None,193,193,0,None,1,,,0,193,193,193,536.120905800024,,,,,,,,,,,536.1074208000209,536.120905800024,536.120905800024,536.3008655000012,536.3340118000051,538.1050933000224,None,1,,,,000017,001,2024-10-10_13h08.54.830,cpt_test,2024.2.2,60.197810003184735,2024-10-10 13h09.23.585666 -0600,
195,X,1,x,194,194,0,x,1,0.44613379999645986,0.17255720001412556,0,194,194,194,538.1182802999974,,,,,,,,,,,538.105409700016,538.1182802999974,538.1182802999974,538.31599990002,538.3321184000233,540.1035967000062,x,1,0.44613379999645986,0.17255720001412556,,000017,001,2024-10-10_13h08.54.830,cpt_test,2024.2.2,60.197810003184735,2024-10-10 13h09.23.585666 -0600,
196,X,1,x,195,195,0,x,1,0.3468536000000313,0.1816936999966856,0,195,195,195,540.1143091999984,,,,,,,,,,,540.1039494000142,540.1143091999984,540.1143091999984,540.3140402999998,540.3140402999998,542.101676899998,x,1,0.3468536000000313,0.1816936999966856,,000017,001,2024-10-10_13h08.54.830,cpt_test,2024.2.2,60.197810003184735,2024-10-10 13h09.23.585666 -0600,
197,O,0,None,196,196,0,None,1,,,0,196,196,196,542.1164182000211,,,,,,,,,,,542.102005200024,542.1164182000211,542.1164182000211,542.3016194000083,542.316492700018,544.1175464999978,None,1,,,544.1106951000111,000017,001,2024-10-10_13h08.54.830,cpt_test,2024.2.2,60.197810003184735,2024-10-10 13h09.23.585666 -0600,
198,X,1,x,197,197,0,x,1,0.4661365000065416,0.1816015999938827,0,197,197,197,544.1321358999994,,,,,,,,,,,544.1179236000171,544.1321358999994,544.1321358999994,544.3020795000193,544.3357826000138,546.1161069000082,x,1,0.4661365000065416,0.1816015999938827,546.1090548000066,000017,001,2024-10-10_13h08.54.830,cpt_test,2024.2.2,60.197810003184735,2024-10-10 13h09.23.585666 -0600,
199,T,0,None,198,198,0,None,1,,,0,198,198,198,546.131079600018,,,,,,,,,,,546.1165004000068,546.131079600018,546.131079600018,546.3166079000221,546.3331606000138,548.1149621000222,None,1,,,,000017,001,2024-10-10_13h08.54.830,cpt_test,2024.2.2,60.197810003184735,2024-10-10 13h09.23.585666 -0600,
200,X,1,x,199,199,0,x,1,0.4401926000136882,0.17679229998611845,0,199,199,199,548.129586199997,,,,,,,,,,,548.1153429000115,548.129586199997,548.129586199997,548.3080359000014,548.3405376000155,550.1128080000053,x,1,0.4401926000136882,0.17679229998611845,,000017,001,2024-10-10_13h08.54.830,cpt_test,2024.2.2,60.197810003184735,2024-10-10 13h09.23.585666 -0600,
201,L,0,None,200,200,0,None,1,,,0,200,200,200,550.127177300019,,,,,,,,,,,550.1132079000236,550.127177300019,550.127177300019,550.312599900004,550.3289512000047,552.1099153000105,None,1,,,,000017,001,2024-10-10_13h08.54.830,cpt_test,2024.2.2,60.197810003184735,2024-10-10 13h09.23.585666 -0600,
