Number,letra,target,correctas,thisN,thisTrialN,thisRepN,respuesta.keys,respuesta.corr,respuesta.rt,respuesta.duration,trials.thisRepN,trials.thisTrialN,trials.thisN,trials.thisIndex,thisRow.t,notes,Ojos_abiertos.started,Abiertos.started,Ojos_abiertos.stopped,Ojos_cerrados.started,Cerrados.started,alert.started,Cerrados.stopped,alert.stopped,Ojos_cerrados.stopped,Test.started,prueba.started,respuesta.started,text.started,prueba.stopped,Test.stopped,trials.respuesta.keys,trials.respuesta.corr,trials.respuesta.rt,trials.respuesta.duration,text.stopped,participant,session,date,expName,psychopyVersion,frameRate,expStart,
,,,,,,,,,,,,,,,,,0.00855319999391213,0.016505499996128492,90.01617129999795,,,,,,,,,,,,,,,,,,000007,001,2024-10-08_14h04.05.895,cpt_test,2024.2.2,59.92545273597638,2024-10-08 14h06.05.897405 -0600,
,,,,,,,,,,,,,,,,,,,,90.01742810000724,90.02914840000449,150.0130137666604,150.02985510000144,150.28115910000633,150.11403860000428,,,,,,,,,,,,000007,001,2024-10-08_14h04.05.895,cpt_test,2024.2.2,59.92545273597638,2024-10-08 14h06.05.897405 -0600,
1,A,0,None,0,0,0,None,1,,,0,0,0,0,150.28115910000633,,,,,,,,,,,150.13307080000232,150.28115910000633,150.28115910000633,150.3125893999968,150.4958217999956,152.11437250000017,None,1,,,,000007,001,2024-10-08_14h04.05.895,cpt_test,2024.2.2,59.92545273597638,2024-10-08 14h06.05.897405 -0600,
2,R,0,None,1,1,0,None,1,,,0,1,1,1,152.13355369999772,,,,,,,,,,,152.11453980000806,152.13355369999772,152.13355369999772,152.31148889999895,152.34452939999755,154.1131005000061,None,1,,,,000007,001,2024-10-08_14h04.05.895,cpt_test,2024.2.2,59.92545273597638,2024-10-08 14h06.05.897405 -0600,
3,L,0,None,2,2,0,None,1,,,0,2,2,2,154.1335459999973,,,,,,,,,,,154.11331499999505,154.1335459999973,154.1335459999973,154.30958879999525,154.34278150000318,156.11132470000302,None,1,,,,000007,001,2024-10-08_14h04.05.895,cpt_test,2024.2.2,59.92545273597638,2024-10-08 14h06.05.897405 -0600,
4,X,1,x,3,3,0,x,1,0.5528034000017215,0.16223469999385998,0,3,3,3,156.12837449999643,,,,,,,,,,,156.11151590000372,156.12837449999643,156.12837449999643,156.30832029999874,156.341173599998,158.10970780000207,x,1,0.5528034000017215,0.16223469999385998,,000007,001,2024-10-08_14h04.05.895,cpt_test,2024.2.2,59.92545273597638,2024-10-08 14h06.05.897405 -0600,
5,O,0,None,4,4,0,None,1,,,0,4,4,4,158.1276848999987,,,,,,,,,,,158.10991290000675,158.1276848999987,158.1276848999987,158.30674640000507,158.3394593999983,160.107259299999,None,1,,,,000007,001,2024-10-08_14h04.05.895,cpt_test,2024.2.2,59.92545273597638,2024-10-08 14h06.05.897405 -0600,
6,G,0,None,5,5,0,None,1,,,0,5,5,5,160.12262660000124,,,,,,,,,,,160.10740649999934,160.12262660000124,160.12262660000124,160.3051950999943,160.32137629999488,162.10575950000202,None,1,,,,000007,001,2024-10-08_14h04.05.895,cpt_test,2024.2.2,59.92545273597638,2024-10-08 14h06.05.897405 -0600,
7,P,0,None,6,6,0,None,1,,,0,6,6,6,162.12125090000336,,,,,,,,,,,162.1059208999941,162.12125090000336,162.12125090000336,162.30331069999374,162.3363723999937,164.10512360000575,None,1,,,,000007,001,2024-10-08_14h04.05.895,cpt_test,2024.2.2,59.92545273597638,2024-10-08 14h06.05.897405 -0600,
8,X,1,x,7,7,0,x,1,0.5329635999951279,0.17775380000239238,0,7,7,7,164.11826020000444,,,,,,,,,,,164.10533790000773,164.11826020000444,164.11826020000444,164.30161470000166,164.31779929999902,166.1027649000025,x,1,0.5329635999951279,0.17775380000239238,,000007,001,2024-10-08_14h04.05.895,cpt_test,2024.2.2,59.92545273597638,2024-10-08 14h06.05.897405 -0600,
9,X,1,x,8,8,0,x,1,0.4164731000055326,0.20343249999859836,0,8,8,8,166.11657349999587,,,,,,,,,,,166.1029508000065,166.11657349999587,166.11657349999587,166.30003600000055,166.31618249999883,168.10179909999715,x,1,0.4164731000055326,0.20343249999859836,,000007,001,2024-10-08_14h04.05.895,cpt_test,2024.2.2,59.92545273597638,2024-10-08 14h06.05.897405 -0600,
10,Z,0,None,9,9,0,None,1,,,0,9,9,9,168.11906169999565,,,,,,,,,,,168.10202690000006,168.11906169999565,168.11906169999565,168.31514890000108,168.33130160000292,170.11711400000786,None,1,,,,000007,001,2024-10-08_14h04.05.895,cpt_test,2024.2.2,59.92545273597638,2024-10-08 14h06.05.897405 -0600,
11,I,0,None,10,10,0,None,1,,,0,10,10,10,170.13427379999484,,,,,,,,,,,170.1173196000018,170.13427379999484,170.13427379999484,170.31301880000683,170.34647330000007,172.11489719999372,None,1,,,,000007,001,2024-10-08_14h04.05.895,cpt_test,2024.2.2,59.92545273597638,2024-10-08 14h06.05.897405 -0600,
12,D,0,None,11,11,0,None,1,,,0,11,11,11,172.13554060000752,,,,,,,,,,,172.11509500000102,172.13554060000752,172.13554060000752,172.31173660000786,172.3445412000001,174.11328170000343,None,1,,,,000007,001,2024-10-08_14h04.05.895,cpt_test,2024.2.2,59.92545273597638,2024-10-08 14h06.05.897405 -0600,
13,X,1,x,12,12,0,x,1,0.5399609000014607,0.18183950000093319,0,12,12,12,174.12670069999876,,,,,,,,,,,174.113474400001,174.12670069999876,174.12670069999876,174.3099269999948,174.32621490000747,176.11018050000712,x,1,0.5399609000014607,0.18183950000093319,,000007,001,2024-10-08_14h04.05.895,cpt_test,2024.2.2,59.92545273597638,2024-10-08 14h06.05.897405 -0600,
14,Y,0,None,13,13,0,None,1,,,0,13,13,13,176.12928540000576,,,,,,,,,,,176.11033340000722,176.12928540000576,176.12928540000576,176.30813459999627,176.3410356999957,178.10961230000248,None,1,,,,000007,001,2024-10-08_14h04.05.895,cpt_test,2024.2.2,59.92545273597638,2024-10-08 14h06.05.897405 -0600,
15,X,1,x,14,14,0,x,1,0.8530934000009438,0.17816530000709463,0,14,14,14,178.12350139999762,,,,,,,,,,,178.10980170000403,178.12350139999762,178.12350139999762,178.30679560000135,178.3229929000081,180.10795420000795,x,1,0.8530934000009438,0.17816530000709463,,000007,001,2024-10-08_14h04.05.895,cpt_test,2024.2.2,59.92545273597638,2024-10-08 14h06.05.897405 -0600,
16,X,1,x,15,15,0,x,1,0.44522670000151265,0.1397992999991402,0,15,15,15,180.12196430000768,,,,,,,,,,,180.10815440000442,180.12196430000768,180.12196430000768,180.30529780000506,180.32261030000518,182.10683920000156,x,1,0.44522670000151265,0.1397992999991402,,000007,001,2024-10-08_14h04.05.895,cpt_test,2024.2.2,59.92545273597638,2024-10-08 14h06.05.897405 -0600,
17,A,0,None,16,16,0,None,1,,,0,16,16,16,182.1200741000066,,,,,,,,,,,182.1070577000064,182.1200741000066,182.1200741000066,182.30336109999917,182.31960820000677,184.10472740000114,None,1,,,,000007,001,2024-10-08_14h04.05.895,cpt_test,2024.2.2,59.92545273597638,2024-10-08 14h06.05.897405 -0600,
18,J,0,None,17,17,0,None,1,,,0,17,17,17,184.12203680000675,,,,,,,,,,,184.10488769999938,184.12203680000675,184.12203680000675,184.3016321000032,184.33488340000622,186.1025767999963,None,1,,,,000007,001,2024-10-08_14h04.05.895,cpt_test,2024.2.2,59.92545273597638,2024-10-08 14h06.05.897405 -0600,
19,G,0,None,18,18,0,None,1,,,0,18,18,18,186.11689420000766,,,,,,,,,,,186.10272320000513,186.11689420000766,186.11689420000766,186.30005780000647,186.3164672999992,188.10162810000475,None,1,,,,000007,001,2024-10-08_14h04.05.895,cpt_test,2024.2.2,59.92545273597638,2024-10-08 14h06.05.897405 -0600,
20,X,1,x,19,19,0,x,1,0.408604700001888,0.2417157000018051,0,19,19,19,188.1154516999959,,,,,,,,,,,188.10181290000037,188.1154516999959,188.1154516999959,188.31487610000477,188.31487610000477,190.1169760000048,x,1,0.408604700001888,0.2417157000018051,,000007,001,2024-10-08_14h04.05.895,cpt_test,2024.2.2,59.92545273597638,2024-10-08 14h06.05.897405 -0600,
21,T,0,None,20,20,0,None,1,,,0,20,20,20,190.13630820000253,,,,,,,,,,,190.11719350000203,190.13630820000253,190.13630820000253,190.31329160000314,190.3466369999951,192.11418489999778,None,1,,,,000007,001,2024-10-08_14h04.05.895,cpt_test,2024.2.2,59.92545273597638,2024-10-08 14h06.05.897405 -0600,
22,S,0,None,21,21,0,None,1,,,0,21,21,21,192.13181390000682,,,,,,,,,,,192.11433039999974,192.13181390000682,192.13181390000682,192.31185440000263,192.34488869999768,194.11333639999793,None,1,,,,000007,001,2024-10-08_14h04.05.895,cpt_test,2024.2.2,59.92545273597638,2024-10-08 14h06.05.897405 -0600,
23,X,1,x,22,22,0,x,1,0.6074360000056913,0.18609709999873303,0,22,22,22,194.1271482000011,,,,,,,,,,,194.11353679999593,194.1271482000011,194.1271482000011,194.3104553000012,194.32739469999797,196.11160059999384,x,1,0.6074360000056913,0.18609709999873303,,000007,001,2024-10-08_14h04.05.895,cpt_test,2024.2.2,59.92545273597638,2024-10-08 14h06.05.897405 -0600,
24,S,0,None,23,23,0,None,1,,,0,23,23,23,196.12519360000442,,,,,,,,,,,196.11179249999986,196.12519360000442,196.12519360000442,196.30838820000645,196.32480800000485,198.11035250000714,None,1,,,,000007,001,2024-10-08_14h04.05.895,cpt_test,2024.2.2,59.92545273597638,2024-10-08 14h06.05.897405 -0600,
25,G,0,None,24,24,0,None,1,,,0,24,24,24,198.12384689999453,,,,,,,,,,,198.1105843999976,198.12384689999453,198.12384689999453,198.3070510999969,198.32338129999698,200.10931919999712,None,1,,,,000007,001,2024-10-08_14h04.05.895,cpt_test,2024.2.2,59.92545273597638,2024-10-08 14h06.05.897405 -0600,
26,O,0,None,25,25,0,None,1,,,0,25,25,25,200.1221871000016,,,,,,,,,,,200.10954479999782,200.1221871000016,200.1221871000016,200.30540330000804,200.32147749999422,202.1068671999965,None,1,,,,000007,001,2024-10-08_14h04.05.895,cpt_test,2024.2.2,59.92545273597638,2024-10-08 14h06.05.897405 -0600,
27,P,0,None,26,26,0,None,1,,,0,26,26,26,202.12057880000793,,,,,,,,,,,202.10705920000328,202.12057880000793,202.12057880000793,202.30382990000362,202.31990770000266,204.10546740000427,None,1,,,,000007,001,2024-10-08_14h04.05.895,cpt_test,2024.2.2,59.92545273597638,2024-10-08 14h06.05.897405 -0600,
28,Z,0,None,27,27,0,None,1,,,0,27,27,27,204.1188747999986,,,,,,,,,,,204.1056638000009,204.1188747999986,204.1188747999986,204.3020785999979,204.31829670000297,206.10285789999762,None,1,,,,000007,001,2024-10-08_14h04.05.895,cpt_test,2024.2.2,59.92545273597638,2024-10-08 14h06.05.897405 -0600,
29,X,1,x,28,28,0,x,1,0.33097450000059325,0.1722726000007242,0,28,28,28,206.11740760000248,,,,,,,,,,,206.10300260000804,206.11740760000248,206.11740760000248,206.30057540000416,206.31654790000175,208.10172489999968,x,1,0.33097450000059325,0.1722726000007242,,000007,001,2024-10-08_14h04.05.895,cpt_test,2024.2.2,59.92545273597638,2024-10-08 14h06.05.897405 -0600,
30,I,0,None,29,29,0,None,1,,,0,29,29,29,208.1153575000062,,,,,,,,,,,208.1019157999981,208.1153575000062,208.1153575000062,208.3151937000075,208.3151937000075,210.11674110000604,None,1,,,,000007,001,2024-10-08_14h04.05.895,cpt_test,2024.2.2,59.92545273597638,2024-10-08 14h06.05.897405 -0600,
31,F,0,None,30,30,0,None,1,,,0,30,30,30,210.13733250000223,,,,,,,,,,,210.11693050000758,210.13733250000223,210.13733250000223,210.31379000000015,210.34656760000507,212.1144373999996,None,1,,,,000007,001,2024-10-08_14h04.05.895,cpt_test,2024.2.2,59.92545273597638,2024-10-08 14h06.05.897405 -0600,
32,M,0,None,31,31,0,None,1,,,0,31,31,31,212.13413360000413,,,,,,,,,,,212.11459199999808,212.13413360000413,212.13413360000413,212.31226869999955,212.34491149999667,214.11329860000114,None,1,,,,000007,001,2024-10-08_14h04.05.895,cpt_test,2024.2.2,59.92545273597638,2024-10-08 14h06.05.897405 -0600,
33,T,0,None,32,32,0,None,1,,,0,32,32,32,214.12708930000372,,,,,,,,,,,214.11348420000286,214.12708930000372,214.12708930000372,214.31019980000565,214.32692380000663,216.1112557000015,None,1,,,,000007,001,2024-10-08_14h04.05.895,cpt_test,2024.2.2,59.92545273597638,2024-10-08 14h06.05.897405 -0600,
34,A,0,None,33,33,0,None,1,,,0,33,33,33,216.1254953000025,,,,,,,,,,,216.11140890000388,216.1254953000025,216.1254953000025,216.30883789999643,216.3251675000065,218.11042270000326,None,1,,,,000007,001,2024-10-08_14h04.05.895,cpt_test,2024.2.2,59.92545273597638,2024-10-08 14h06.05.897405 -0600,
35,E,0,None,34,34,0,None,1,,,0,34,34,34,218.1281386000046,,,,,,,,,,,218.11064539999643,218.1281386000046,218.1281386000046,218.3073132999998,218.34034599999723,220.10868839999603,None,1,,,,000007,001,2024-10-08_14h04.05.895,cpt_test,2024.2.2,59.92545273597638,2024-10-08 14h06.05.897405 -0600,
36,X,1,x,35,35,0,x,1,0.3836622999951942,0.20083620000514202,0,35,35,35,220.1222895999963,,,,,,,,,,,220.10889920000045,220.1222895999963,220.1222895999963,220.30524060000607,220.32172490000085,222.10687060000782,x,1,0.3836622999951942,0.20083620000514202,,000007,001,2024-10-08_14h04.05.895,cpt_test,2024.2.2,59.92545273597638,2024-10-08 14h06.05.897405 -0600,
37,A,0,None,36,36,0,None,1,,,0,36,36,36,222.12083139999595,,,,,,,,,,,222.10706270000082,222.12083139999595,222.12083139999595,222.30361499999708,222.32154150000133,224.10561179999786,None,1,,,,000007,001,2024-10-08_14h04.05.895,cpt_test,2024.2.2,59.92545273597638,2024-10-08 14h06.05.897405 -0600,
38,S,0,None,37,37,0,None,1,,,0,37,37,37,224.11883150000358,,,,,,,,,,,224.10581690000254,224.11883150000358,224.11883150000358,224.3021868000069,224.3183302999969,226.10374489999958,None,1,,,,000007,001,2024-10-08_14h04.05.895,cpt_test,2024.2.2,59.92545273597638,2024-10-08 14h06.05.897405 -0600,
39,U,0,None,38,38,0,None,1,,,0,38,38,38,226.12575190000643,,,,,,,,,,,226.10392890000367,226.12575190000643,226.12575190000643,226.30067450000206,226.33343420000165,228.10138589999406,None,1,,,,000007,001,2024-10-08_14h04.05.895,cpt_test,2024.2.2,59.92545273597638,2024-10-08 14h06.05.897405 -0600,
40,U,0,None,39,39,0,None,1,,,0,39,39,39,228.11562270000286,,,,,,,,,,,228.10152700000617,228.11562270000286,228.11562270000286,228.31486600000062,228.31486600000062,230.11673209999572,None,1,,,230.11373599999934,000007,001,2024-10-08_14h04.05.895,cpt_test,2024.2.2,59.92545273597638,2024-10-08 14h06.05.897405 -0600,
41,Q,0,None,40,40,0,None,1,,,0,40,40,40,230.13658370000485,,,,,,,,,,,230.11691120000614,230.13658370000485,230.13658370000485,230.31403379999392,230.34678589999385,232.11527449999994,None,1,,,,000007,001,2024-10-08_14h04.05.895,cpt_test,2024.2.2,59.92545273597638,2024-10-08 14h06.05.897405 -0600,
42,E,0,None,41,41,0,None,1,,,0,41,41,41,232.12935810000636,,,,,,,,,,,232.11542550000013,232.12935810000636,232.12935810000636,232.31240219999745,232.3285995000042,234.11440109999967,None,1,,,,000007,001,2024-10-08_14h04.05.895,cpt_test,2024.2.2,59.92545273597638,2024-10-08 14h06.05.897405 -0600,
43,B,0,None,42,42,0,None,1,,,0,42,42,42,234.1352091000008,,,,,,,,,,,234.11462700000266,234.1352091000008,234.1352091000008,234.31075150000106,234.34365500000422,236.11332360000233,None,1,,,,000007,001,2024-10-08_14h04.05.895,cpt_test,2024.2.2,59.92545273597638,2024-10-08 14h06.05.897405 -0600,
44,O,0,None,43,43,0,None,1,,,0,43,43,43,236.12598009999783,,,,,,,,,,,236.11356759999762,236.12598009999783,236.12598009999783,236.30885610000405,236.32537380000576,238.11082659999374,None,1,,,,000007,001,2024-10-08_14h04.05.895,cpt_test,2024.2.2,59.92545273597638,2024-10-08 14h06.05.897405 -0600,
45,E,0,None,44,44,0,None,1,,,0,44,44,44,238.1241755999945,,,,,,,,,,,238.11103260000527,238.1241755999945,238.1241755999945,238.30727980000665,238.32377760000236,240.10957020000205,None,1,,,,000007,001,2024-10-08_14h04.05.895,cpt_test,2024.2.2,59.92545273597638,2024-10-08 14h06.05.897405 -0600,
46,F,0,None,45,45,0,None,1,,,0,45,45,45,240.1225395000074,,,,,,,,,,,240.10980609999388,240.1225395000074,240.1225395000074,240.30549129999417,240.32194979999622,242.1076813999971,None,1,,,,000007,001,2024-10-08_14h04.05.895,cpt_test,2024.2.2,59.92545273597638,2024-10-08 14h06.05.897405 -0600,
47,V,0,None,46,46,0,None,1,,,0,46,46,46,242.12988710000354,,,,,,,,,,,242.10790679999627,242.12988710000354,242.12988710000354,242.30408190000162,242.33692499999597,244.10580020000634,None,1,,,,000007,001,2024-10-08_14h04.05.895,cpt_test,2024.2.2,59.92545273597638,2024-10-08 14h06.05.897405 -0600,
48,X,1,x,47,47,0,x,1,0.5150097000005189,0.24380399999790825,0,47,47,47,244.11949349999486,,,,,,,,,,,244.10600590000104,244.11949349999486,244.11949349999486,244.30226050000056,244.31888400000753,246.1033391999954,x,1,0.5150097000005189,0.24380399999790825,,000007,001,2024-10-08_14h04.05.895,cpt_test,2024.2.2,59.92545273597638,2024-10-08 14h06.05.897405 -0600,
49,X,1,x,48,48,0,x,1,0.4810812999930931,0.27400250000937376,0,48,48,48,246.11790979999932,,,,,,,,,,,246.10348710000108,246.11790979999932,246.11790979999932,246.3006858000008,246.3172559999948,248.10193459999573,x,1,0.4810812999930931,0.27400250000937376,,000007,001,2024-10-08_14h04.05.895,cpt_test,2024.2.2,59.92545273597638,2024-10-08 14h06.05.897405 -0600,
50,C,0,None,49,49,0,None,1,,,0,49,49,49,248.12060130000464,,,,,,,,,,,248.102106499995,248.12060130000464,248.12060130000464,248.3156483000057,248.33224540000083,250.11699350000708,None,1,,,,000007,001,2024-10-08_14h04.05.895,cpt_test,2024.2.2,59.92545273597638,2024-10-08 14h06.05.897405 -0600,
51,M,0,None,50,50,0,None,1,,,0,50,50,50,250.13102749999962,,,,,,,,,,,250.11718280000787,250.13102749999962,250.13102749999962,250.31418489999487,250.3304436000035,252.1156420000043,None,1,,,,000007,001,2024-10-08_14h04.05.895,cpt_test,2024.2.2,59.92545273597638,2024-10-08 14h06.05.897405 -0600,
52,D,0,None,51,51,0,None,1,,,0,51,51,51,252.12925690000702,,,,,,,,,,,252.11583249999967,252.12925690000702,252.12925690000702,252.31253460000153,252.3286614999961,254.11449609999545,None,1,,,,000007,001,2024-10-08_14h04.05.895,cpt_test,2024.2.2,59.92545273597638,2024-10-08 14h06.05.897405 -0600,
53,X,1,x,52,52,0,x,1,0.5467783000058262,0.195467199999257,0,52,52,52,254.1276627000043,,,,,,,,,,,254.1147176999948,254.1276627000043,254.1276627000043,254.310919800002,254.32693440000003,256.11222429999907,x,1,0.5467783000058262,0.195467199999257,,000007,001,2024-10-08_14h04.05.895,cpt_test,2024.2.2,59.92545273597638,2024-10-08 14h06.05.897405 -0600,
54,K,0,None,53,53,0,None,1,,,0,53,53,53,256.133113200005,,,,,,,,,,,256.1124261000077,256.133113200005,256.133113200005,256.30898770000204,256.3416941000032,258.11023459999706,None,1,,,,000007,001,2024-10-08_14h04.05.895,cpt_test,2024.2.2,59.92545273597638,2024-10-08 14h06.05.897405 -0600,
55,X,1,x,54,54,0,x,1,0.5406101000116905,0.19002419999742415,0,54,54,54,258.12455940000655,,,,,,,,,,,258.11039850000816,258.12455940000655,258.12455940000655,258.3075175999984,258.3235557000007,260.10886209999444,x,1,0.5406101000116905,0.19002419999742415,,000007,001,2024-10-08_14h04.05.895,cpt_test,2024.2.2,59.92545273597638,2024-10-08 14h06.05.897405 -0600,
56,N,0,None,55,55,0,None,1,,,0,55,55,55,260.1292426,,,,,,,,,,,260.1090467000031,260.1292426,260.1292426,260.30595249999897,260.3388653000002,262.10668680000526,None,1,,,,000007,001,2024-10-08_14h04.05.895,cpt_test,2024.2.2,59.92545273597638,2024-10-08 14h06.05.897405 -0600,
57,M,0,None,56,56,0,None,1,,,0,56,56,56,262.1212061999977,,,,,,,,,,,262.1068658000004,262.1212061999977,262.1212061999977,262.3044305000076,262.3205547999969,264.1046179999976,None,1,,,,000007,001,2024-10-08_14h04.05.895,cpt_test,2024.2.2,59.92545273597638,2024-10-08 14h06.05.897405 -0600,
58,X,1,x,57,57,0,x,1,0.4718310000025667,0.19238629999745172,0,57,57,57,264.11959899999783,,,,,,,,,,,264.10475790000055,264.11959899999783,264.11959899999783,264.30256910000753,264.3190248000028,266.10314770000696,x,1,0.4718310000025667,0.19238629999745172,,000007,001,2024-10-08_14h04.05.895,cpt_test,2024.2.2,59.92545273597638,2024-10-08 14h06.05.897405 -0600,
59,F,0,None,58,58,0,None,1,,,0,58,58,58,266.1179969000077,,,,,,,,,,,266.1032959000004,266.1179969000077,266.1179969000077,266.3008261000068,266.31714670000656,268.1022159999993,None,1,,,,000007,001,2024-10-08_14h04.05.895,cpt_test,2024.2.2,59.92545273597638,2024-10-08 14h06.05.897405 -0600,
60,A,0,None,59,59,0,None,1,,,0,59,59,59,268.1159243000002,,,,,,,,,,,268.10239680000814,268.1159243000002,268.1159243000002,268.3157057000062,268.3157057000062,270.11616600000707,None,1,,,,000007,001,2024-10-08_14h04.05.895,cpt_test,2024.2.2,59.92545273597638,2024-10-08 14h06.05.897405 -0600,
61,X,1,x,60,60,0,x,1,0.46979230000579264,0.20547909999731928,0,60,60,60,270.13079939999443,,,,,,,,,,,270.1163072000054,270.13079939999443,270.13079939999443,270.3138312999945,270.33014560000447,272.1144725000049,x,1,0.46979230000579264,0.20547909999731928,,000007,001,2024-10-08_14h04.05.895,cpt_test,2024.2.2,59.92545273597638,2024-10-08 14h06.05.897405 -0600,
62,V,0,None,61,61,0,None,1,,,0,61,61,61,272.12911700000404,,,,,,,,,,,272.11463700000604,272.12911700000404,272.12911700000404,272.31222049999633,272.3286050000024,274.1136336000054,None,1,,,,000007,001,2024-10-08_14h04.05.895,cpt_test,2024.2.2,59.92545273597638,2024-10-08 14h06.05.897405 -0600,
63,U,0,None,62,62,0,None,1,,,0,62,62,62,274.12797099999443,,,,,,,,,,,274.11379170000146,274.12797099999443,274.12797099999443,274.3109899999981,274.3273155000061,276.1137166999979,None,1,,,,000007,001,2024-10-08_14h04.05.895,cpt_test,2024.2.2,59.92545273597638,2024-10-08 14h06.05.897405 -0600,
64,M,0,None,63,63,0,None,1,,,0,63,63,63,276.12609400000656,,,,,,,,,,,276.1140104000078,276.12609400000656,276.12609400000656,276.3094385000004,276.3257440000016,278.11047549999785,None,1,,,,000007,001,2024-10-08_14h04.05.895,cpt_test,2024.2.2,59.92545273597638,2024-10-08 14h06.05.897405 -0600,
65,X,1,x,64,64,0,x,1,0.5179658999986714,0.19881820000591688,0,64,64,64,278.1242903999955,,,,,,,,,,,278.1106456999987,278.1242903999955,278.1242903999955,278.30772559999605,278.3239678999962,280.10822019999614,x,1,0.5179658999986714,0.19881820000591688,,000007,001,2024-10-08_14h04.05.895,cpt_test,2024.2.2,59.92545273597638,2024-10-08 14h06.05.897405 -0600,
66,A,0,None,65,65,0,None,1,,,0,65,65,65,280.12273459999415,,,,,,,,,,,280.10837460000766,280.12273459999415,280.12273459999415,280.3062263000029,280.32249079999747,282.10665139999765,None,1,,,,000007,001,2024-10-08_14h04.05.895,cpt_test,2024.2.2,59.92545273597638,2024-10-08 14h06.05.897405 -0600,
67,N,0,None,66,66,0,None,1,,,0,66,66,66,282.12131030000455,,,,,,,,,,,282.1068018000078,282.12131030000455,282.12131030000455,282.30443950000335,282.320724899997,284.10524879999866,None,1,,,,000007,001,2024-10-08_14h04.05.895,cpt_test,2024.2.2,59.92545273597638,2024-10-08 14h06.05.897405 -0600,
68,H,0,None,67,67,0,None,1,,,0,67,67,67,284.12394750000385,,,,,,,,,,,284.10540760000004,284.12394750000385,284.12394750000385,284.30299809999997,284.33570979999786,286.1036538000044,None,1,,,,000007,001,2024-10-08_14h04.05.895,cpt_test,2024.2.2,59.92545273597638,2024-10-08 14h06.05.897405 -0600,
69,A,0,None,68,68,0,None,1,,,0,68,68,68,286.1178932000039,,,,,,,,,,,286.10380660000374,286.1178932000039,286.1178932000039,286.3011800999957,286.3176342000079,288.10214740000083,None,1,,,,000007,001,2024-10-08_14h04.05.895,cpt_test,2024.2.2,59.92545273597638,2024-10-08 14h06.05.897405 -0600,
70,X,1,x,69,69,0,x,1,0.4342618999944534,0.1873805000068387,0,69,69,69,288.1164757999941,,,,,,,,,,,288.10229880000406,288.1164757999941,288.1164757999941,288.3160016000038,288.3160016000038,290.11714990000473,x,1,0.4342618999944534,0.1873805000068387,,000007,001,2024-10-08_14h04.05.895,cpt_test,2024.2.2,59.92545273597638,2024-10-08 14h06.05.897405 -0600,
71,F,0,None,70,70,0,None,1,,,0,70,70,70,290.1314821999986,,,,,,,,,,,290.11732259999553,290.1314821999986,290.1314821999986,290.31464450000203,290.33095909999975,292.11519159999443,None,1,,,,000007,001,2024-10-08_14h04.05.895,cpt_test,2024.2.2,59.92545273597638,2024-10-08 14h06.05.897405 -0600,
72,N,0,None,71,71,0,None,1,,,0,71,71,71,292.1295490000048,,,,,,,,,,,292.1153592000046,292.1295490000048,292.1295490000048,292.3131291000027,292.32920779999404,294.114253000007,None,1,,,,000007,001,2024-10-08_14h04.05.895,cpt_test,2024.2.2,59.92545273597638,2024-10-08 14h06.05.897405 -0600,
73,K,0,None,72,72,0,None,1,,,0,72,72,72,294.1276021999947,,,,,,,,,,,294.1144490000006,294.1276021999947,294.1276021999947,294.3113674000051,294.3276524999965,296.1121385000006,None,1,,,,000007,001,2024-10-08_14h04.05.895,cpt_test,2024.2.2,59.92545273597638,2024-10-08 14h06.05.897405 -0600,
74,Y,0,None,73,73,0,None,1,,,0,73,73,73,296.12638790000346,,,,,,,,,,,296.1122890999977,296.12638790000346,296.12638790000346,296.30952680000337,296.3258552000043,298.11108210000384,None,1,,,,000007,001,2024-10-08_14h04.05.895,cpt_test,2024.2.2,59.92545273597638,2024-10-08 14h06.05.897405 -0600,
75,Y,0,None,74,74,0,None,1,,,0,74,74,74,298.12478179999744,,,,,,,,,,,298.11127249999845,298.12478179999744,298.12478179999744,298.3079610999994,298.32429059999413,300.1094107999961,None,1,,,,000007,001,2024-10-08_14h04.05.895,cpt_test,2024.2.2,59.92545273597638,2024-10-08 14h06.05.897405 -0600,
76,R,0,None,75,75,0,None,1,,,0,75,75,75,300.1229913999996,,,,,,,,,,,300.1096012000053,300.1229913999996,300.1229913999996,300.3060824999993,300.32269339999766,302.1083892000024,None,1,,,,000007,001,2024-10-08_14h04.05.895,cpt_test,2024.2.2,59.92545273597638,2024-10-08 14h06.05.897405 -0600,
77,X,1,x,76,76,0,x,1,0.4532231000048341,0.21013680000032764,0,76,76,76,302.1212003999972,,,,,,,,,,,302.1086099999957,302.1212003999972,302.1212003999972,302.30445670000336,302.32094869999855,304.106254600003,x,1,0.4532231000048341,0.21013680000032764,,000007,001,2024-10-08_14h04.05.895,cpt_test,2024.2.2,59.92545273597638,2024-10-08 14h06.05.897405 -0600,
78,R,0,None,77,77,0,None,1,,,0,77,77,77,304.11961280000105,,,,,,,,,,,304.1064761000016,304.11961280000105,304.11961280000105,304.3028215999948,304.3193872999982,306.10411070000555,None,1,,,,000007,001,2024-10-08_14h04.05.895,cpt_test,2024.2.2,59.92545273597638,2024-10-08 14h06.05.897405 -0600,
79,F,0,None,78,78,0,None,1,,,0,78,78,78,306.118063899994,,,,,,,,,,,306.10429839999415,306.118063899994,306.118063899994,306.3014894999942,306.3176351000002,308.10297510000237,None,1,,,,000007,001,2024-10-08_14h04.05.895,cpt_test,2024.2.2,59.92545273597638,2024-10-08 14h06.05.897405 -0600,
80,K,0,None,79,79,0,None,1,,,0,79,79,79,308.1162605999998,,,,,,,,,,,308.1031617999979,308.1162605999998,308.1162605999998,308.31582630000776,308.31582630000776,310.10183689999394,None,1,,,,000007,001,2024-10-08_14h04.05.895,cpt_test,2024.2.2,59.92545273597638,2024-10-08 14h06.05.897405 -0600,
81,O,0,None,80,80,0,None,1,,,0,80,80,80,310.1149708000012,,,,,,,,,,,310.1020583000063,310.1149708000012,310.1149708000012,310.3145255999989,310.3145255999989,312.1169207000057,None,1,,,,000007,001,2024-10-08_14h04.05.895,cpt_test,2024.2.2,59.92545273597638,2024-10-08 14h06.05.897405 -0600,
82,F,0,None,81,81,0,None,1,,,0,81,81,81,312.12965099999565,,,,,,,,,,,312.11714329999813,312.12965099999565,312.12965099999565,312.31294220000564,312.3293937999988,314.11522890000197,None,1,,,,000007,001,2024-10-08_14h04.05.895,cpt_test,2024.2.2,59.92545273597638,2024-10-08 14h06.05.897405 -0600,
83,F,0,None,82,82,0,None,1,,,0,82,82,82,314.12802669999655,,,,,,,,,,,314.11542980000377,314.12802669999655,314.12802669999655,314.31149690000166,314.32788430000073,316.11309210000036,None,1,,,,000007,001,2024-10-08_14h04.05.895,cpt_test,2024.2.2,59.92545273597638,2024-10-08 14h06.05.897405 -0600,
84,W,0,None,83,83,0,None,1,,,0,83,83,83,316.1357891999942,,,,,,,,,,,316.11329160000605,316.1357891999942,316.1357891999942,316.30982460000087,316.3425694000034,318.1106984000071,None,1,,,,000007,001,2024-10-08_14h04.05.895,cpt_test,2024.2.2,59.92545273597638,2024-10-08 14h06.05.897405 -0600,
85,X,1,x,84,84,0,x,1,0.49576130000059493,0.18153509999683592,0,84,84,84,318.1250557000021,,,,,,,,,,,318.11086539999815,318.1250557000021,318.1250557000021,318.3079272000032,318.32453250000253,320.10902269999497,x,1,0.49576130000059493,0.18153509999683592,,000007,001,2024-10-08_14h04.05.895,cpt_test,2024.2.2,59.92545273597638,2024-10-08 14h06.05.897405 -0600,
86,J,0,None,85,85,0,None,1,,,0,85,85,85,320.1231082000013,,,,,,,,,,,320.1091951999988,320.1231082000013,320.1231082000013,320.3064582999941,320.32281559999683,322.107608300008,None,1,,,,000007,001,2024-10-08_14h04.05.895,cpt_test,2024.2.2,59.92545273597638,2024-10-08 14h06.05.897405 -0600,
87,N,0,None,86,86,0,None,1,,,0,86,86,86,322.12187780000386,,,,,,,,,,,322.1077701000031,322.12187780000386,322.12187780000386,322.30500399999437,322.3211219000077,324.10634640000353,None,1,,,,000007,001,2024-10-08_14h04.05.895,cpt_test,2024.2.2,59.92545273597638,2024-10-08 14h06.05.897405 -0600,
88,X,1,x,87,87,0,x,1,0.5378954999905545,0.24033730001247022,0,87,87,87,324.11972240000614,,,,,,,,,,,324.10652620000474,324.11972240000614,324.11972240000614,324.3031661999994,324.3194879999937,326.1043114000058,x,1,0.5378954999905545,0.24033730001247022,,000007,001,2024-10-08_14h04.05.895,cpt_test,2024.2.2,59.92545273597638,2024-10-08 14h06.05.897405 -0600,
89,T,0,None,88,88,0,None,1,,,0,88,88,88,326.118223700003,,,,,,,,,,,326.1044961000007,326.118223700003,326.118223700003,326.3016776000004,326.31801489999634,328.1024510999996,None,1,,,,000007,001,2024-10-08_14h04.05.895,cpt_test,2024.2.2,59.92545273597638,2024-10-08 14h06.05.897405 -0600,
90,I,0,None,89,89,0,None,1,,,0,89,89,89,328.11657209999976,,,,,,,,,,,328.10261210000317,328.11657209999976,328.11657209999976,328.2995807999978,328.3163670000067,330.11718600000313,None,1,,,330.11467229999835,000007,001,2024-10-08_14h04.05.895,cpt_test,2024.2.2,59.92545273597638,2024-10-08 14h06.05.897405 -0600,
91,P,0,None,90,90,0,None,1,,,0,90,90,90,330.13183969999955,,,,,,,,,,,330.1173318000074,330.13183969999955,330.13183969999955,330.31493059999775,330.3312545999943,332.1160753000004,None,1,,,,000007,001,2024-10-08_14h04.05.895,cpt_test,2024.2.2,59.92545273597638,2024-10-08 14h06.05.897405 -0600,
92,X,1,x,91,91,0,x,1,0.833242099994095,0.16730420000385493,0,91,91,91,332.1301317000034,,,,,,,,,,,332.11624659999507,332.1301317000034,332.1301317000034,332.3133983000007,332.32976639999833,334.11397130000114,x,1,0.833242099994095,0.16730420000385493,,000007,001,2024-10-08_14h04.05.895,cpt_test,2024.2.2,59.92545273597638,2024-10-08 14h06.05.897405 -0600,
93,B,0,None,92,92,0,None,1,,,0,92,92,92,334.1282444999961,,,,,,,,,,,334.11414610000793,334.1282444999961,334.1282444999961,334.3114881000074,334.3278360999975,336.11240500000713,None,1,,,,000007,001,2024-10-08_14h04.05.895,cpt_test,2024.2.2,59.92545273597638,2024-10-08 14h06.05.897405 -0600,
94,M,0,None,93,93,0,None,1,,,0,93,93,93,336.12701789999846,,,,,,,,,,,336.1125541000074,336.12701789999846,336.12701789999846,336.309769200001,336.3265978999989,338.11121200000343,None,1,,,,000007,001,2024-10-08_14h04.05.895,cpt_test,2024.2.2,59.92545273597638,2024-10-08 14h06.05.897405 -0600,
95,B,0,None,94,94,0,None,1,,,0,94,94,94,338.12497590000567,,,,,,,,,,,338.11139629999525,338.12497590000567,338.12497590000567,338.3081791000004,338.3244754000043,340.1098850999988,None,1,,,,000007,001,2024-10-08_14h04.05.895,cpt_test,2024.2.2,59.92545273597638,2024-10-08 14h06.05.897405 -0600,
96,I,0,None,95,95,0,None,1,,,0,95,95,95,340.123322200001,,,,,,,,,,,340.1100723999989,340.123322200001,340.123322200001,340.30646479999996,340.32283109999844,342.1073175000056,None,1,,,,000007,001,2024-10-08_14h04.05.895,cpt_test,2024.2.2,59.92545273597638,2024-10-08 14h06.05.897405 -0600,
97,X,1,x,96,96,0,x,1,0.5180419000098482,0.16654079999716487,0,96,96,96,342.12159179999435,,,,,,,,,,,342.1074590000062,342.12159179999435,342.12159179999435,342.3048814000067,342.32146880000073,344.1060135000007,x,1,0.5180419000098482,0.16654079999716487,,000007,001,2024-10-08_14h04.05.895,cpt_test,2024.2.2,59.92545273597638,2024-10-08 14h06.05.897405 -0600,
98,J,0,None,97,97,0,None,1,,,0,97,97,97,344.1200478999963,,,,,,,,,,,344.1062110000057,344.1200478999963,344.1200478999963,344.3033721999964,344.31979090000095,346.1043051000015,None,1,,,,000007,001,2024-10-08_14h04.05.895,cpt_test,2024.2.2,59.92545273597638,2024-10-08 14h06.05.897405 -0600,
99,X,1,x,98,98,0,x,1,0.5978306000033626,0.20478029998776037,0,98,98,98,346.11874419999367,,,,,,,,,,,346.1044588999939,346.11874419999367,346.11874419999367,346.3017045000015,346.3181435000006,348.10247589999926,x,1,0.5978306000033626,0.20478029998776037,,000007,001,2024-10-08_14h04.05.895,cpt_test,2024.2.2,59.92545273597638,2024-10-08 14h06.05.897405 -0600,
100,U,0,None,99,99,0,None,1,,,0,99,99,99,348.1169293999992,,,,,,,,,,,348.1026337000076,348.1169293999992,348.1169293999992,348.30017309999675,348.31640910000715,350.1009883000079,None,1,,,,000007,001,2024-10-08_14h04.05.895,cpt_test,2024.2.2,59.92545273597638,2024-10-08 14h06.05.897405 -0600,
101,D,0,None,100,100,0,None,1,,,0,100,100,100,350.11527300000307,,,,,,,,,,,350.101145099994,350.11527300000307,350.11527300000307,350.3147547999979,350.3147547999979,352.1159875000012,None,1,,,,000007,001,2024-10-08_14h04.05.895,cpt_test,2024.2.2,59.92545273597638,2024-10-08 14h06.05.897405 -0600,
102,X,1,x,101,101,0,x,1,0.4296961999934865,0.1924760999972932,0,101,101,101,352.13031170000613,,,,,,,,,,,352.11622150000767,352.13031170000613,352.13031170000613,352.31328719999874,352.32980490000045,354.11453590000747,x,1,0.4296961999934865,0.1924760999972932,,000007,001,2024-10-08_14h04.05.895,cpt_test,2024.2.2,59.92545273597638,2024-10-08 14h06.05.897405 -0600,
103,X,1,x,102,102,0,x,1,0.6142894999939017,0.2134243000036804,0,102,102,102,354.12848929999745,,,,,,,,,,,354.11472130000766,354.12848929999745,354.12848929999745,354.31176779999805,354.3281747000001,356.1129673999967,x,1,0.6142894999939017,0.2134243000036804,,000007,001,2024-10-08_14h04.05.895,cpt_test,2024.2.2,59.92545273597638,2024-10-08 14h06.05.897405 -0600,
104,N,0,None,103,103,0,None,1,,,0,103,103,103,356.12699570000404,,,,,,,,,,,356.1131425000058,356.12699570000404,356.12699570000404,356.31032750000304,356.32648950000294,358.1113788999937,None,1,,,,000007,001,2024-10-08_14h04.05.895,cpt_test,2024.2.2,59.92545273597638,2024-10-08 14h06.05.897405 -0600,
105,U,0,None,104,104,0,None,1,,,0,104,104,104,358.12541399999463,,,,,,,,,,,358.1115468000062,358.12541399999463,358.12541399999463,358.3085986000078,358.3249144000001,360.10934799999814,None,1,,,,000007,001,2024-10-08_14h04.05.895,cpt_test,2024.2.2,59.92545273597638,2024-10-08 14h06.05.897405 -0600,
106,T,0,None,105,105,0,None,1,,,0,105,105,105,360.1235305000009,,,,,,,,,,,360.10949170000094,360.1235305000009,360.1235305000009,360.30678230000194,360.3232685999974,362.107889100007,None,1,,,,000007,001,2024-10-08_14h04.05.895,cpt_test,2024.2.2,59.92545273597638,2024-10-08 14h06.05.897405 -0600,
107,W,0,None,106,106,0,None,1,,,0,106,106,106,362.12219840000034,,,,,,,,,,,362.10804089999874,362.12219840000034,362.12219840000034,362.30534869999974,362.3217902000033,364.1056043999997,None,1,,,,000007,001,2024-10-08_14h04.05.895,cpt_test,2024.2.2,59.92545273597638,2024-10-08 14h06.05.897405 -0600,
108,N,0,None,107,107,0,None,1,,,0,107,107,107,364.12058909999905,,,,,,,,,,,364.10575649999373,364.12058909999905,364.12058909999905,364.30335610000475,364.319994400008,366.10432359999686,None,1,,,,000007,001,2024-10-08_14h04.05.895,cpt_test,2024.2.2,59.92545273597638,2024-10-08 14h06.05.897405 -0600,
109,R,0,None,108,108,0,None,1,,,0,108,108,108,366.1187293999974,,,,,,,,,,,366.1044827000005,366.1187293999974,366.1187293999974,366.301836300001,366.3182197999995,368.1029667999974,None,1,,,,000007,001,2024-10-08_14h04.05.895,cpt_test,2024.2.2,59.92545273597638,2024-10-08 14h06.05.897405 -0600,
110,X,1,x,109,109,0,x,1,0.5295215000078315,0.1815267999918433,0,109,109,109,368.1168375999987,,,,,,,,,,,368.10312270000577,368.1168375999987,368.1168375999987,368.3004130000045,368.3166291999951,370.1013934999937,x,1,0.5295215000078315,0.1815267999918433,,000007,001,2024-10-08_14h04.05.895,cpt_test,2024.2.2,59.92545273597638,2024-10-08 14h06.05.897405 -0600,
111,A,0,None,110,110,0,None,1,,,0,110,110,110,370.11544340000546,,,,,,,,,,,370.10156540000753,370.11544340000546,370.11544340000546,370.31494559999555,370.31494559999555,372.11623600000166,None,1,,,,000007,001,2024-10-08_14h04.05.895,cpt_test,2024.2.2,59.92545273597638,2024-10-08 14h06.05.897405 -0600,
112,X,1,x,111,111,0,x,1,0.3732127999974182,0.19125450000865385,0,111,111,111,372.13048120000167,,,,,,,,,,,372.11640009999974,372.13048120000167,372.13048120000167,372.31336569999985,372.3297719999973,374.1147544999985,x,1,0.3732127999974182,0.19125450000865385,,000007,001,2024-10-08_14h04.05.895,cpt_test,2024.2.2,59.92545273597638,2024-10-08 14h06.05.897405 -0600,
113,G,0,None,112,112,0,None,1,,,0,112,112,112,374.12891359999776,,,,,,,,,,,374.1149294000061,374.12891359999776,374.12891359999776,374.31200410000747,374.32844399999885,376.11291720000736,None,1,,,,000007,001,2024-10-08_14h04.05.895,cpt_test,2024.2.2,59.92545273597638,2024-10-08 14h06.05.897405 -0600,
114,O,0,None,113,113,0,None,1,,,0,113,113,113,376.1274282999948,,,,,,,,,,,376.11307740000484,376.1274282999948,376.1274282999948,376.31014709999727,376.3264227000036,378.11091580000357,None,1,,,,000007,001,2024-10-08_14h04.05.895,cpt_test,2024.2.2,59.92545273597638,2024-10-08 14h06.05.897405 -0600,
115,U,0,None,114,114,0,None,1,,,0,114,114,114,378.1257753999962,,,,,,,,,,,378.1110585999995,378.1257753999962,378.1257753999962,378.3084769999987,378.325190500007,380.1091529999976,None,1,,,,000007,001,2024-10-08_14h04.05.895,cpt_test,2024.2.2,59.92545273597638,2024-10-08 14h06.05.897405 -0600,
116,X,1,x,115,115,0,x,1,0.4766081999987364,0.1904417000041576,0,115,115,115,380.12447090000205,,,,,,,,,,,380.1092908999999,380.12447090000205,380.12447090000205,380.3071360000031,380.32366930000717,382.1075783999986,x,1,0.4766081999987364,0.1904417000041576,,000007,001,2024-10-08_14h04.05.895,cpt_test,2024.2.2,59.92545273597638,2024-10-08 14h06.05.897405 -0600,
117,X,1,x,116,116,0,x,1,0.8248448999947868,0.22266040000249632,0,116,116,116,382.1223334999959,,,,,,,,,,,382.1077312999987,382.1223334999959,382.1223334999959,382.305311899996,382.3218102999963,384.1063884000032,x,1,0.8248448999947868,0.22266040000249632,,000007,001,2024-10-08_14h04.05.895,cpt_test,2024.2.2,59.92545273597638,2024-10-08 14h06.05.897405 -0600,
118,C,0,None,117,117,0,None,1,,,0,117,117,117,384.12062929999956,,,,,,,,,,,384.1065362000081,384.12062929999956,384.12062929999956,384.30366859999776,384.319977799998,386.104224900002,None,1,,,,000007,001,2024-10-08_14h04.05.895,cpt_test,2024.2.2,59.92545273597638,2024-10-08 14h06.05.897405 -0600,
119,A,0,None,118,118,0,None,1,,,0,118,118,118,386.11902470000496,,,,,,,,,,,386.10436939999636,386.11902470000496,386.11902470000496,386.30215970000427,386.3184182999976,388.1023936999991,None,1,,,,000007,001,2024-10-08_14h04.05.895,cpt_test,2024.2.2,59.92545273597638,2024-10-08 14h06.05.897405 -0600,
120,X,1,x,119,119,0,x,1,0.6343369000096573,0.17665039999701548,0,119,119,119,388.1171864000062,,,,,,,,,,,388.10253560000274,388.1171864000062,388.1171864000062,388.3003786000045,388.31689610000467,390.10088329999417,x,1,0.6343369000096573,0.17665039999701548,,000007,001,2024-10-08_14h04.05.895,cpt_test,2024.2.2,59.92545273597638,2024-10-08 14h06.05.897405 -0600,
121,H,0,None,120,120,0,None,1,,,0,120,120,120,390.1154514999944,,,,,,,,,,,390.10103289999824,390.1154514999944,390.1154514999944,390.31511310000496,390.31511310000496,392.1167562000046,None,1,,,,000007,001,2024-10-08_14h04.05.895,cpt_test,2024.2.2,59.92545273597638,2024-10-08 14h06.05.897405 -0600,
122,M,0,None,121,121,0,None,1,,,0,121,121,121,392.13085420000425,,,,,,,,,,,392.1169293999992,392.13085420000425,392.13085420000425,392.3137504000042,392.3301857000042,394.1144536000065,None,1,,,,000007,001,2024-10-08_14h04.05.895,cpt_test,2024.2.2,59.92545273597638,2024-10-08 14h06.05.897405 -0600,
123,V,0,None,122,122,0,None,1,,,0,122,122,122,394.1288526999997,,,,,,,,,,,394.11460729999817,394.1288526999997,394.1288526999997,394.3118667999952,394.32820060000813,396.11288250000507,None,1,,,,000007,001,2024-10-08_14h04.05.895,cpt_test,2024.2.2,59.92545273597638,2024-10-08 14h06.05.897405 -0600,
124,K,0,None,123,123,0,None,1,,,0,123,123,123,396.1272162999958,,,,,,,,,,,396.1130456999963,396.1272162999958,396.1272162999958,396.3104524999944,396.32667070000025,398.1113699999987,None,1,,,,000007,001,2024-10-08_14h04.05.895,cpt_test,2024.2.2,59.92545273597638,2024-10-08 14h06.05.897405 -0600,
125,G,0,None,124,124,0,None,1,,,0,124,124,124,398.1255944000004,,,,,,,,,,,398.1116486999963,398.1255944000004,398.1255944000004,398.3087610999937,398.32527099999425,400.10977500000445,None,1,,,,000007,001,2024-10-08_14h04.05.895,cpt_test,2024.2.2,59.92545273597638,2024-10-08 14h06.05.897405 -0600,
126,A,0,None,125,125,0,None,1,,,0,125,125,125,400.1242576000077,,,,,,,,,,,400.10991959999956,400.1242576000077,400.1242576000077,400.3071715999977,400.3234713999991,402.1083301000035,None,1,,,,000007,001,2024-10-08_14h04.05.895,cpt_test,2024.2.2,59.92545273597638,2024-10-08 14h06.05.897405 -0600,
127,X,1,x,126,126,0,x,1,0.5107539000018733,0.1978938999964157,0,126,126,126,402.12258559999464,,,,,,,,,,,402.1084831000044,402.12258559999464,402.12258559999464,402.30575820000377,402.3219250999973,404.10664300000644,x,1,0.5107539000018733,0.1978938999964157,,000007,001,2024-10-08_14h04.05.895,cpt_test,2024.2.2,59.92545273597638,2024-10-08 14h06.05.897405 -0600,
128,N,0,None,127,127,0,None,1,,,0,127,127,127,404.1205237999966,,,,,,,,,,,404.1068135999958,404.1205237999966,404.1205237999966,404.30392920000304,404.3204893999937,406.10470579999674,None,1,,,,000007,001,2024-10-08_14h04.05.895,cpt_test,2024.2.2,59.92545273597638,2024-10-08 14h06.05.897405 -0600,
129,Y,0,None,128,128,0,None,1,,,0,128,128,128,406.1190760000027,,,,,,,,,,,406.10487130000547,406.1190760000027,406.1190760000027,406.30195690000255,406.31880760000786,408.1031065999996,None,1,,,,000007,001,2024-10-08_14h04.05.895,cpt_test,2024.2.2,59.92545273597638,2024-10-08 14h06.05.897405 -0600,
130,W,0,None,129,129,0,None,1,,,0,129,129,129,408.1173984000052,,,,,,,,,,,408.1032647999964,408.1173984000052,408.1173984000052,408.30069509999885,408.31669970000803,410.101505300001,None,1,,,,000007,001,2024-10-08_14h04.05.895,cpt_test,2024.2.2,59.92545273597638,2024-10-08 14h06.05.897405 -0600,
131,L,0,None,130,130,0,None,1,,,0,130,130,130,410.1160496999946,,,,,,,,,,,410.10164360000635,410.1160496999946,410.1160496999946,410.31547420000425,410.31547420000425,412.11685880000005,None,1,,,,000007,001,2024-10-08_14h04.05.895,cpt_test,2024.2.2,59.92545273597638,2024-10-08 14h06.05.897405 -0600,
132,F,0,None,131,131,0,None,1,,,0,131,131,131,412.13109140000597,,,,,,,,,,,412.11701360000006,412.13109140000597,412.13109140000597,412.31396870000754,412.3303253000049,414.11503080000693,None,1,,,,000007,001,2024-10-08_14h04.05.895,cpt_test,2024.2.2,59.92545273597638,2024-10-08 14h06.05.897405 -0600,
133,E,0,None,132,132,0,None,1,,,0,132,132,132,414.12878149999597,,,,,,,,,,,414.1151783999958,414.12878149999597,414.12878149999597,414.3124203000043,414.3284927000059,416.1133566000062,None,1,,,,000007,001,2024-10-08_14h04.05.895,cpt_test,2024.2.2,59.92545273597638,2024-10-08 14h06.05.897405 -0600,
134,L,0,None,133,133,0,None,1,,,0,133,133,133,416.12746909999987,,,,,,,,,,,416.11351789999753,416.12746909999987,416.12746909999987,416.3108108000015,416.32683210000687,418.11157999999705,None,1,,,,000007,001,2024-10-08_14h04.05.895,cpt_test,2024.2.2,59.92545273597638,2024-10-08 14h06.05.897405 -0600,
135,K,0,None,134,134,0,None,1,,,0,134,134,134,418.1258928000025,,,,,,,,,,,418.111748299998,418.1258928000025,418.1258928000025,418.30891500000143,418.32545329999994,420.1101475000032,None,1,,,,000007,001,2024-10-08_14h04.05.895,cpt_test,2024.2.2,59.92545273597638,2024-10-08 14h06.05.897405 -0600,
136,Q,0,None,135,135,0,None,1,,,0,135,135,135,420.12436380000145,,,,,,,,,,,420.11030929999833,420.12436380000145,420.12436380000145,420.3072833000042,420.3237896000064,422.10845870000776,None,1,,,,000007,001,2024-10-08_14h04.05.895,cpt_test,2024.2.2,59.92545273597638,2024-10-08 14h06.05.897405 -0600,
137,X,1,x,136,136,0,x,1,0.494157000008272,0.21498049999354407,0,136,136,136,422.1228300000075,,,,,,,,,,,422.1086091000034,422.1228300000075,422.1228300000075,422.3056063999975,422.3217031999957,424.1066012999945,x,1,0.494157000008272,0.21498049999354407,,000007,001,2024-10-08_14h04.05.895,cpt_test,2024.2.2,59.92545273597638,2024-10-08 14h06.05.897405 -0600,
138,J,0,None,137,137,0,None,1,,,0,137,137,137,424.12061070000345,,,,,,,,,,,424.1067597000074,424.12061070000345,424.12061070000345,424.3041239000013,424.3206363000063,426.10491389999515,None,1,,,,000007,001,2024-10-08_14h04.05.895,cpt_test,2024.2.2,59.92545273597638,2024-10-08 14h06.05.897405 -0600,
139,X,1,x,138,138,0,x,1,0.4582695999997668,0.19646049999573734,0,138,138,138,426.1191015000077,,,,,,,,,,,426.1050632999977,426.1191015000077,426.1191015000077,426.302460299994,426.31890929999645,428.1037554000068,x,1,0.4582695999997668,0.19646049999573734,,000007,001,2024-10-08_14h04.05.895,cpt_test,2024.2.2,59.92545273597638,2024-10-08 14h06.05.897405 -0600,
140,E,0,None,139,139,0,None,1,,,0,139,139,139,428.1177422000037,,,,,,,,,,,428.1039465000067,428.1177422000037,428.1177422000037,428.300900000002,428.3173111000069,430.10241710000264,None,1,,,,000007,001,2024-10-08_14h04.05.895,cpt_test,2024.2.2,59.92545273597638,2024-10-08 14h06.05.897405 -0600,
141,T,0,None,140,140,0,None,1,,,0,140,140,140,430.1155998000031,,,,,,,,,,,430.1026051999943,430.1155998000031,430.1155998000031,430.31562439999834,430.31562439999834,432.11677740000596,None,1,,,,000007,001,2024-10-08_14h04.05.895,cpt_test,2024.2.2,59.92545273597638,2024-10-08 14h06.05.897405 -0600,
142,X,1,x,141,141,0,x,1,0.49469229999522213,0.1776599000004353,0,141,141,141,432.1312742000009,,,,,,,,,,,432.1169255999994,432.1312742000009,432.1312742000009,432.3143118000007,432.3306833999959,434.11496190000616,x,1,0.49469229999522213,0.1776599000004353,,000007,001,2024-10-08_14h04.05.895,cpt_test,2024.2.2,59.92545273597638,2024-10-08 14h06.05.897405 -0600,
143,Q,0,None,142,142,0,None,1,,,0,142,142,142,434.1296818999981,,,,,,,,,,,434.115109499995,434.1296818999981,434.1296818999981,434.31280929999775,434.32924200000707,436.1133928000054,None,1,,,,000007,001,2024-10-08_14h04.05.895,cpt_test,2024.2.2,59.92545273597638,2024-10-08 14h06.05.897405 -0600,
144,V,0,None,143,143,0,None,1,,,0,143,143,143,436.1275861000031,,,,,,,,,,,436.1135504999984,436.1275861000031,436.1275861000031,436.31084310000006,436.3272072999971,438.1120410000003,None,1,,,,000007,001,2024-10-08_14h04.05.895,cpt_test,2024.2.2,59.92545273597638,2024-10-08 14h06.05.897405 -0600,
145,Y,0,None,144,144,0,None,1,,,0,144,144,144,438.12603990000207,,,,,,,,,,,438.1122052999999,438.12603990000207,438.12603990000207,438.30935450000106,438.32574580000073,440.1104956000054,None,1,,,,000007,001,2024-10-08_14h04.05.895,cpt_test,2024.2.2,59.92545273597638,2024-10-08 14h06.05.897405 -0600,
146,O,0,None,145,145,0,None,1,,,0,145,145,145,440.124247300002,,,,,,,,,,,440.11065220000455,440.124247300002,440.124247300002,440.3078652999975,440.32416309999826,442.10849460000463,None,1,,,,000007,001,2024-10-08_14h04.05.895,cpt_test,2024.2.2,59.92545273597638,2024-10-08 14h06.05.897405 -0600,
147,T,0,None,146,146,0,None,1,,,0,146,146,146,442.122864799996,,,,,,,,,,,442.1086527000007,442.122864799996,442.122864799996,442.30588729999727,442.322333300006,444.1073716999963,None,1,,,,000007,001,2024-10-08_14h04.05.895,cpt_test,2024.2.2,59.92545273597638,2024-10-08 14h06.05.897405 -0600,
148,X,1,x,147,147,0,x,1,0.5083078000025125,0.21002169999701437,0,147,147,147,444.121080900004,,,,,,,,,,,444.1075539000012,444.121080900004,444.121080900004,444.3042650999996,444.3205811999942,446.1058958000067,x,1,0.5083078000025125,0.21002169999701437,,000007,001,2024-10-08_14h04.05.895,cpt_test,2024.2.2,59.92545273597638,2024-10-08 14h06.05.897405 -0600,
149,T,0,None,148,148,0,None,1,,,0,148,148,148,446.11922409999534,,,,,,,,,,,446.10609309999563,446.11922409999534,446.11922409999534,446.30249390000245,446.3189175000007,448.1042316999956,None,1,,,,000007,001,2024-10-08_14h04.05.895,cpt_test,2024.2.2,59.92545273597638,2024-10-08 14h06.05.897405 -0600,
150,S,0,None,149,149,0,None,1,,,0,149,149,149,448.11772880000353,,,,,,,,,,,448.1044278000045,448.11772880000353,448.11772880000353,448.30089600000065,448.31746780000685,450.1017320999963,None,1,,,,000007,001,2024-10-08_14h04.05.895,cpt_test,2024.2.2,59.92545273597638,2024-10-08 14h06.05.897405 -0600,
151,L,0,None,150,150,0,None,1,,,0,150,150,150,450.11628790000395,,,,,,,,,,,450.1018718999985,450.11628790000395,450.11628790000395,450.31594480000786,450.31594480000786,452.1172690999956,None,1,,,,000007,001,2024-10-08_14h04.05.895,cpt_test,2024.2.2,59.92545273597638,2024-10-08 14h06.05.897405 -0600,
152,V,0,None,151,151,0,None,1,,,0,151,151,151,452.1313508000021,,,,,,,,,,,452.1174280999985,452.1313508000021,452.1313508000021,452.31451939999533,452.3307621999993,454.1151788999996,None,1,,,,000007,001,2024-10-08_14h04.05.895,cpt_test,2024.2.2,59.92545273597638,2024-10-08 14h06.05.897405 -0600,
153,C,0,None,152,152,0,None,1,,,0,152,152,152,454.129277,,,,,,,,,,,454.11534829999437,454.129277,454.129277,454.31260390000534,454.3289053000044,456.1136176,None,1,,,,000007,001,2024-10-08_14h04.05.895,cpt_test,2024.2.2,59.92545273597638,2024-10-08 14h06.05.897405 -0600,
154,U,0,None,153,153,0,None,1,,,0,153,153,153,456.12793849999434,,,,,,,,,,,456.1137757999968,456.12793849999434,456.12793849999434,456.3112878999964,456.3274364999961,458.11214919999475,None,1,,,,000007,001,2024-10-08_14h04.05.895,cpt_test,2024.2.2,59.92545273597638,2024-10-08 14h06.05.897405 -0600,
155,X,1,x,154,154,0,x,1,0.4672050999943167,0.15794480001204647,0,154,154,154,458.1264291999978,,,,,,,,,,,458.11230310000246,458.1264291999978,458.1264291999978,458.3095237999951,458.32565440000326,460.1099986000045,x,1,0.4672050999943167,0.15794480001204647,,000007,001,2024-10-08_14h04.05.895,cpt_test,2024.2.2,59.92545273597638,2024-10-08 14h06.05.897405 -0600,
156,X,1,x,155,155,0,x,1,0.5983845000009751,0.20147270000597928,0,155,155,155,460.1245834000001,,,,,,,,,,,460.1101442000072,460.1245834000001,460.1245834000001,460.30761489999713,460.32421249999607,462.10847099999955,x,1,0.5983845000009751,0.20147270000597928,,000007,001,2024-10-08_14h04.05.895,cpt_test,2024.2.2,59.92545273597638,2024-10-08 14h06.05.897405 -0600,
157,L,0,None,156,156,0,None,1,,,0,156,156,156,462.1228492999944,,,,,,,,,,,462.10862559999805,462.1228492999944,462.1228492999944,462.3061849000078,462.3225145000033,464.1077929000021,None,1,,,,000007,001,2024-10-08_14h04.05.895,cpt_test,2024.2.2,59.92545273597638,2024-10-08 14h06.05.897405 -0600,
158,W,0,None,157,157,0,None,1,,,0,157,157,157,464.12126640000497,,,,,,,,,,,464.10798250000516,464.12126640000497,464.12126640000497,464.30471039999975,464.32063679999555,466.105902299998,None,1,,,,000007,001,2024-10-08_14h04.05.895,cpt_test,2024.2.2,59.92545273597638,2024-10-08 14h06.05.897405 -0600,
159,A,0,None,158,158,0,None,1,,,0,158,158,158,466.1196062999952,,,,,,,,,,,466.1060918000003,466.1196062999952,466.1196062999952,466.3025531000021,466.3190767000051,468.10471739999775,None,1,,,,000007,001,2024-10-08_14h04.05.895,cpt_test,2024.2.2,59.92545273597638,2024-10-08 14h06.05.897405 -0600,
160,X,1,x,159,159,0,x,1,0.5161130999913439,0.20022130000870675,0,159,159,159,468.1181305000064,,,,,,,,,,,468.1048933999991,468.1181305000064,468.1181305000064,468.30126429999655,468.3175926999975,470.1026914999966,x,1,0.5161130999913439,0.20022130000870675,,000007,001,2024-10-08_14h04.05.895,cpt_test,2024.2.2,59.92545273597638,2024-10-08 14h06.05.897405 -0600,
161,A,0,None,160,160,0,None,1,,,0,160,160,160,470.11646889999975,,,,,,,,,,,470.1028772999998,470.11646889999975,470.11646889999975,470.2994292999938,470.31585169999744,472.10065740000573,None,1,,,,000007,001,2024-10-08_14h04.05.895,cpt_test,2024.2.2,59.92545273597638,2024-10-08 14h06.05.897405 -0600,
162,M,0,None,161,161,0,None,1,,,0,161,161,161,472.1145753000019,,,,,,,,,,,472.1008179000055,472.1145753000019,472.1145753000019,472.31439850000606,472.31439850000606,474.1183691000042,None,1,,,,000007,001,2024-10-08_14h04.05.895,cpt_test,2024.2.2,59.92545273597638,2024-10-08 14h06.05.897405 -0600,
163,X,1,x,162,162,0,x,1,0.5343897999991896,0.17880829999921843,0,162,162,162,474.1294295999978,,,,,,,,,,,474.11858989999746,474.1294295999978,474.1294295999978,474.31263080000645,474.32899959999486,476.1139853000059,x,1,0.5343897999991896,0.17880829999921843,,000007,001,2024-10-08_14h04.05.895,cpt_test,2024.2.2,59.92545273597638,2024-10-08 14h06.05.897405 -0600,
164,X,1,x,163,163,0,x,1,0.5378082999959588,0.21305330000177491,0,163,163,163,476.1278134000022,,,,,,,,,,,476.1141634999949,476.1278134000022,476.1278134000022,476.3112525000033,476.32742279999366,478.11279889999423,x,1,0.5378082999959588,0.21305330000177491,,000007,001,2024-10-08_14h04.05.895,cpt_test,2024.2.2,59.92545273597638,2024-10-08 14h06.05.897405 -0600,
165,K,0,None,164,164,0,None,1,,,0,164,164,164,478.1264196999982,,,,,,,,,,,478.1129956000077,478.1264196999982,478.1264196999982,478.3094592999987,478.3258075000049,480.1109778999962,None,1,,,,000007,001,2024-10-08_14h04.05.895,cpt_test,2024.2.2,59.92545273597638,2024-10-08 14h06.05.897405 -0600,
166,X,1,x,165,165,0,x,1,0.6745190000074217,0.18671349999203812,0,165,165,165,480.1247699999949,,,,,,,,,,,480.1111557999975,480.1247699999949,480.1247699999949,480.30789870000444,480.32406070000434,482.1090266999963,x,1,0.6745190000074217,0.18671349999203812,,000007,001,2024-10-08_14h04.05.895,cpt_test,2024.2.2,59.92545273597638,2024-10-08 14h06.05.897405 -0600,
167,M,0,None,166,166,0,None,1,,,0,166,166,166,482.1230144000001,,,,,,,,,,,482.10919780000404,482.1230144000001,482.1230144000001,482.3061657000071,482.3224149000016,484.1070907999965,None,1,,,,000007,001,2024-10-08_14h04.05.895,cpt_test,2024.2.2,59.92545273597638,2024-10-08 14h06.05.897405 -0600,
168,X,1,x,167,167,0,x,1,0.44462349999230355,0.1725873999967007,0,167,167,167,484.1215009000007,,,,,,,,,,,484.10725660000753,484.1215009000007,484.1215009000007,484.3047513000056,484.3209317000001,486.10592289999477,x,1,0.44462349999230355,0.1725873999967007,,000007,001,2024-10-08_14h04.05.895,cpt_test,2024.2.2,59.92545273597638,2024-10-08 14h06.05.897405 -0600,
169,A,0,None,168,168,0,None,1,,,0,168,168,168,486.11998299999686,,,,,,,,,,,486.1060986999946,486.11998299999686,486.11998299999686,486.30289269999776,486.3192379999964,488.1038464000012,None,1,,,,000007,001,2024-10-08_14h04.05.895,cpt_test,2024.2.2,59.92545273597638,2024-10-08 14h06.05.897405 -0600,
170,X,1,x,169,169,0,x,1,0.5331521999905817,0.17606810000143014,0,169,169,169,488.1184618999978,,,,,,,,,,,488.1039865000057,488.1184618999978,488.1184618999978,488.3016013000015,488.3175093000027,490.10225539999374,x,1,0.5331521999905817,0.17606810000143014,,000007,001,2024-10-08_14h04.05.895,cpt_test,2024.2.2,59.92545273597638,2024-10-08 14h06.05.897405 -0600,
171,L,0,None,170,170,0,None,1,,,0,170,170,170,490.11650669999653,,,,,,,,,,,490.1024125999975,490.11650669999653,490.11650669999653,490.299454699998,490.31626340000366,492.1171153000032,None,1,,,492.1148011000041,000007,001,2024-10-08_14h04.05.895,cpt_test,2024.2.2,59.92545273597638,2024-10-08 14h06.05.897405 -0600,
172,E,0,None,171,171,0,None,1,,,0,171,171,171,492.1312881000049,,,,,,,,,,,492.11725480000314,492.1312881000049,492.1312881000049,492.3149487000046,492.33128600000055,494.1156403000059,None,1,,,,000007,001,2024-10-08_14h04.05.895,cpt_test,2024.2.2,59.92545273597638,2024-10-08 14h06.05.897405 -0600,
173,T,0,None,172,172,0,None,1,,,0,172,172,172,494.1300379000022,,,,,,,,,,,494.11579870000423,494.1300379000022,494.1300379000022,494.3132304000028,494.329542499996,496.1139448000031,None,1,,,,000007,001,2024-10-08_14h04.05.895,cpt_test,2024.2.2,59.92545273597638,2024-10-08 14h06.05.897405 -0600,
174,F,0,None,173,173,0,None,1,,,0,173,173,173,496.1284997000039,,,,,,,,,,,496.1140890999959,496.1284997000039,496.1284997000039,496.3113178000058,496.3277405999979,498.112240500006,None,1,,,,000007,001,2024-10-08_14h04.05.895,cpt_test,2024.2.2,59.92545273597638,2024-10-08 14h06.05.897405 -0600,
175,M,0,None,174,174,0,None,1,,,0,174,174,174,498.12648750000517,,,,,,,,,,,498.11239559999376,498.12648750000517,498.12648750000517,498.31004609999945,498.3264410999982,500.11073580000084,None,1,,,,000007,001,2024-10-08_14h04.05.895,cpt_test,2024.2.2,59.92545273597638,2024-10-08 14h06.05.897405 -0600,
176,Q,0,None,175,175,0,None,1,,,0,175,175,175,500.12526099999377,,,,,,,,,,,500.1108893000055,500.12526099999377,500.12526099999377,500.30821640000795,500.3244931000081,502.10920859999896,None,1,,,,000007,001,2024-10-08_14h04.05.895,cpt_test,2024.2.2,59.92545273597638,2024-10-08 14h06.05.897405 -0600,
177,M,0,None,176,176,0,None,1,,,0,176,176,176,502.12323769999784,,,,,,,,,,,502.10935959999915,502.12323769999784,502.12323769999784,502.3063075999962,502.32305310000083,504.1078647999966,None,1,,,,000007,001,2024-10-08_14h04.05.895,cpt_test,2024.2.2,59.92545273597638,2024-10-08 14h06.05.897405 -0600,
178,X,1,x,177,177,0,x,1,0.46807000000262633,0.21525819999806117,0,177,177,177,504.1215735000005,,,,,,,,,,,504.10803730000043,504.1215735000005,504.1215735000005,504.3049264000001,504.32115740000154,506.10543809999945,x,1,0.46807000000262633,0.21525819999806117,,000007,001,2024-10-08_14h04.05.895,cpt_test,2024.2.2,59.92545273597638,2024-10-08 14h06.05.897405 -0600,
179,V,0,None,178,178,0,None,1,,,0,178,178,178,506.11990360000345,,,,,,,,,,,506.10559730000386,506.11990360000345,506.11990360000345,506.3034023000073,506.319648699995,508.1040209000057,None,1,,,,000007,001,2024-10-08_14h04.05.895,cpt_test,2024.2.2,59.92545273597638,2024-10-08 14h06.05.897405 -0600,
180,M,0,None,179,179,0,None,1,,,0,179,179,179,508.11866370000644,,,,,,,,,,,508.1041602000041,508.11866370000644,508.11866370000644,508.3014315000037,508.31811789999483,510.1023958000005,None,1,,,,000007,001,2024-10-08_14h04.05.895,cpt_test,2024.2.2,59.92545273597638,2024-10-08 14h06.05.897405 -0600,
181,P,0,None,180,180,0,None,1,,,0,180,180,180,510.11685999999463,,,,,,,,,,,510.1025607000047,510.11685999999463,510.11685999999463,510.29965460000676,510.31611200000043,512.1006257999979,None,1,,,,000007,001,2024-10-08_14h04.05.895,cpt_test,2024.2.2,59.92545273597638,2024-10-08 14h06.05.897405 -0600,
182,K,0,None,181,181,0,None,1,,,0,181,181,181,512.1150244000019,,,,,,,,,,,512.1007823999971,512.1150244000019,512.1150244000019,512.3144845000061,512.3144845000061,514.1159117000061,None,1,,,,000007,001,2024-10-08_14h04.05.895,cpt_test,2024.2.2,59.92545273597638,2024-10-08 14h06.05.897405 -0600,
183,V,0,None,182,182,0,None,1,,,0,182,182,182,514.1302878999995,,,,,,,,,,,514.116070899996,514.1302878999995,514.1302878999995,514.3133463999984,514.329515999998,516.1149163999944,None,1,,,,000007,001,2024-10-08_14h04.05.895,cpt_test,2024.2.2,59.92545273597638,2024-10-08 14h06.05.897405 -0600,
184,G,0,None,183,183,0,None,1,,,0,183,183,183,516.1286054999946,,,,,,,,,,,516.1151099999988,516.1286054999946,516.1286054999946,516.3118525000027,516.3280202000024,518.1129299000022,None,1,,,,000007,001,2024-10-08_14h04.05.895,cpt_test,2024.2.2,59.92545273597638,2024-10-08 14h06.05.897405 -0600,
185,L,0,None,184,184,0,None,1,,,0,184,184,184,518.1268894999957,,,,,,,,,,,518.1130965000048,518.1268894999957,518.1268894999957,518.309886300005,518.326570300007,520.1108428000007,None,1,,,,000007,001,2024-10-08_14h04.05.895,cpt_test,2024.2.2,59.92545273597638,2024-10-08 14h06.05.897405 -0600,
186,Q,0,None,185,185,0,None,1,,,0,185,185,185,520.1251133000042,,,,,,,,,,,520.1109826000029,520.1251133000042,520.1251133000042,520.3086602999974,520.3248081000056,522.108919899998,None,1,,,,000007,001,2024-10-08_14h04.05.895,cpt_test,2024.2.2,59.92545273597638,2024-10-08 14h06.05.897405 -0600,
187,N,0,None,186,186,0,None,1,,,0,186,186,186,522.1234979000001,,,,,,,,,,,522.1090580000018,522.1234979000001,522.1234979000001,522.3067923000053,522.3227631000045,524.1085744000011,None,1,,,,000007,001,2024-10-08_14h04.05.895,cpt_test,2024.2.2,59.92545273597638,2024-10-08 14h06.05.897405 -0600,
188,K,0,None,187,187,0,None,1,,,0,187,187,187,524.1217314999958,,,,,,,,,,,524.1087611999974,524.1217314999958,524.1217314999958,524.3048922000016,524.3213644000061,526.1065801999939,None,1,,,,000007,001,2024-10-08_14h04.05.895,cpt_test,2024.2.2,59.92545273597638,2024-10-08 14h06.05.897405 -0600,
189,C,0,None,188,188,0,None,1,,,0,188,188,188,526.120118699997,,,,,,,,,,,526.106761899995,526.120118699997,526.120118699997,526.3032380999939,526.3196540000063,528.1044072000077,None,1,,,,000007,001,2024-10-08_14h04.05.895,cpt_test,2024.2.2,59.92545273597638,2024-10-08 14h06.05.897405 -0600,
190,Z,0,None,189,189,0,None,1,,,0,189,189,189,528.118280900002,,,,,,,,,,,528.1045795999962,528.118280900002,528.118280900002,528.3018232000031,528.3181513000018,530.1023800999974,None,1,,,,000007,001,2024-10-08_14h04.05.895,cpt_test,2024.2.2,59.92545273597638,2024-10-08 14h06.05.897405 -0600,
191,I,0,None,190,190,0,None,1,,,0,190,190,190,530.116849900005,,,,,,,,,,,530.1025306999945,530.116849900005,530.116849900005,530.2998686000064,530.3163490000006,532.1012078000058,None,1,,,,000007,001,2024-10-08_14h04.05.895,cpt_test,2024.2.2,59.92545273597638,2024-10-08 14h06.05.897405 -0600,
192,J,0,None,191,191,0,None,1,,,0,191,191,191,532.1152318999957,,,,,,,,,,,532.1013470000034,532.1152318999957,532.1152318999957,532.3148511000036,532.3148511000036,534.1158147999959,None,1,,,,000007,001,2024-10-08_14h04.05.895,cpt_test,2024.2.2,59.92545273597638,2024-10-08 14h06.05.897405 -0600,
193,X,1,x,192,192,0,x,1,0.5584185999905458,0.1971107999997912,0,192,192,192,534.1298865999997,,,,,,,,,,,534.1159700999997,534.1298865999997,534.1298865999997,534.3131812000065,534.3301301000029,536.1143161000073,x,1,0.5584185999905458,0.1971107999997912,,000007,001,2024-10-08_14h04.05.895,cpt_test,2024.2.2,59.92545273597638,2024-10-08 14h06.05.897405 -0600,
194,E,0,None,193,193,0,None,1,,,0,193,193,193,536.1285205000022,,,,,,,,,,,536.1144778000016,536.1285205000022,536.1285205000022,536.3117034000024,536.3281577000016,538.1128447999945,None,1,,,,000007,001,2024-10-08_14h04.05.895,cpt_test,2024.2.2,59.92545273597638,2024-10-08 14h06.05.897405 -0600,
195,X,1,x,194,194,0,x,1,0.49850050000532065,0.234435599995777,0,194,194,194,538.1274894999951,,,,,,,,,,,538.1130013000075,538.1274894999951,538.1274894999951,538.3102115000074,538.326622499997,540.1110943999956,x,1,0.49850050000532065,0.234435599995777,,000007,001,2024-10-08_14h04.05.895,cpt_test,2024.2.2,59.92545273597638,2024-10-08 14h06.05.897405 -0600,
196,X,1,x,195,195,0,x,1,0.3700362999952631,0.1868652999983169,0,195,195,195,540.1255360000068,,,,,,,,,,,540.1112668999995,540.1255360000068,540.1255360000068,540.3083534000034,540.3247735000041,542.1104282000015,x,1,0.3700362999952631,0.1868652999983169,,000007,001,2024-10-08_14h04.05.895,cpt_test,2024.2.2,59.92545273597638,2024-10-08 14h06.05.897405 -0600,
197,O,0,None,196,196,0,None,1,,,0,196,196,196,542.1236644000019,,,,,,,,,,,542.1106312000047,542.1236644000019,542.1236644000019,542.3071577999945,542.3231362000079,544.1079205999995,None,1,,,,000007,001,2024-10-08_14h04.05.895,cpt_test,2024.2.2,59.92545273597638,2024-10-08 14h06.05.897405 -0600,
198,X,1,x,197,197,0,x,1,0.4261001999984728,0.17187189999094699,0,197,197,197,544.122014099994,,,,,,,,,,,544.1080912000034,544.122014099994,544.122014099994,544.3050139999978,544.3215478000056,546.1053948000044,x,1,0.4261001999984728,0.17187189999094699,,000007,001,2024-10-08_14h04.05.895,cpt_test,2024.2.2,59.92545273597638,2024-10-08 14h06.05.897405 -0600,
199,T,0,None,198,198,0,None,1,,,0,198,198,198,546.1199118000077,,,,,,,,,,,546.1055486999976,546.1199118000077,546.1199118000077,546.304541400008,546.3205670000025,548.1039768000046,None,1,,,,000007,001,2024-10-08_14h04.05.895,cpt_test,2024.2.2,59.92545273597638,2024-10-08 14h06.05.897405 -0600,
200,X,1,x,199,199,0,x,1,0.459435000011581,0.19172689999686554,0,199,199,199,548.118976800004,,,,,,,,,,,548.1041200000036,548.118976800004,548.118976800004,548.3020421999972,548.3182520999981,550.1027108999988,x,1,0.459435000011581,0.19172689999686554,,000007,001,2024-10-08_14h04.05.895,cpt_test,2024.2.2,59.92545273597638,2024-10-08 14h06.05.897405 -0600,
201,L,0,None,200,200,0,None,1,,,0,200,200,200,550.1172603000014,,,,,,,,,,,550.1028854000033,550.1172603000014,550.1172603000014,550.3003058000031,550.3165779999981,552.1009188000025,None,1,,,,000007,001,2024-10-08_14h04.05.895,cpt_test,2024.2.2,59.92545273597638,2024-10-08 14h06.05.897405 -0600,
