Number,letra,target,correctas,thisN,thisTrialN,thisRepN,respuesta.keys,respuesta.corr,respuesta.rt,respuesta.duration,trials.thisRepN,trials.thisTrialN,trials.thisN,trials.thisIndex,thisRow.t,notes,Ojos_abiertos.started,Abiertos.started,Ojos_abiertos.stopped,Ojos_cerrados.started,Cerrados.started,alert.started,Cerrados.stopped,Ojos_cerrados.stopped,Test.started,prueba.started,respuesta.started,text.started,prueba.stopped,Test.stopped,trials.respuesta.keys,trials.respuesta.corr,trials.respuesta.rt,trials.respuesta.duration,text.stopped,participant,session,date,expName,psychopyVersion,frameRate,expStart,
,,,,,,,,,,,,,,,,,0.013226700000814162,0.022407900003599934,90.00468990000081,,,,,,,,,,,,,,,,,000006,001,2024-10-08_13h52.06.418,cpt_test,2024.2.2,59.94423986917265,2024-10-08 13h52.17.582122 -0600,
,,,,,,,,,,,,,,,,,,,,90.00656629999867,90.01694499999576,150.01577426666725,150.03219260000333,150.1049495000043,,,,,,,,,,,,000006,001,2024-10-08_13h52.06.418,cpt_test,2024.2.2,59.94423986917265,2024-10-08 13h52.17.582122 -0600,
1,A,0,None,0,0,0,None,1,,,0,0,0,0,150.3259059999982,,,,,,,,,,150.1560626999999,150.3259059999982,150.3259059999982,150.3383843000047,150.5319845000049,152.10297849999915,None,1,,,,000006,001,2024-10-08_13h52.06.418,cpt_test,2024.2.2,59.94423986917265,2024-10-08 13h52.17.582122 -0600,
2,R,0,None,1,1,0,None,1,,,0,1,1,1,152.12887499999488,,,,,,,,,,152.10330109999632,152.12887499999488,152.12887499999488,152.31408850000298,152.33026610000525,154.10166339999705,None,1,,,,000006,001,2024-10-08_13h52.06.418,cpt_test,2024.2.2,59.94423986917265,2024-10-08 13h52.17.582122 -0600,
3,L,0,None,2,2,0,None,1,,,0,2,2,2,154.13121140000294,,,,,,,,,,154.10200329999498,154.13121140000294,154.13121140000294,154.31271610000113,154.34543739999935,156.10109359999478,None,1,,,,000006,001,2024-10-08_13h52.06.418,cpt_test,2024.2.2,59.94423986917265,2024-10-08 13h52.17.582122 -0600,
4,X,1,x,3,3,0,x,1,0.35279929998796433,0.1253469000075711,0,3,3,3,156.13651320000645,,,,,,,,,,156.10149210000236,156.13651320000645,156.13651320000645,156.3107880000025,156.34339490000275,158.11589430000458,x,1,0.35279929998796433,0.1253469000075711,,000006,001,2024-10-08_13h52.06.418,cpt_test,2024.2.2,59.94423986917265,2024-10-08 13h52.17.582122 -0600,
5,O,0,None,4,4,0,None,1,,,0,4,4,4,158.14985190000152,,,,,,,,,,158.11630409999634,158.14985190000152,158.14985190000152,158.30949660000624,158.3587017999962,160.1128721999994,None,1,,,,000006,001,2024-10-08_13h52.06.418,cpt_test,2024.2.2,59.94423986917265,2024-10-08 13h52.17.582122 -0600,
6,G,0,None,5,5,0,None,1,,,0,5,5,5,160.14159590000054,,,,,,,,,,160.11318089999259,160.14159590000054,160.14159590000054,160.3074193000066,160.34037689999968,162.11155800000415,None,1,,,,000006,001,2024-10-08_13h52.06.418,cpt_test,2024.2.2,59.94423986917265,2024-10-08 13h52.17.582122 -0600,
7,P,0,None,6,6,0,None,1,,,0,6,6,6,162.1407748000056,,,,,,,,,,162.11186839999573,162.1407748000056,162.1407748000056,162.30591399999685,162.35556310000538,164.11003110000456,None,1,,,,000006,001,2024-10-08_13h52.06.418,cpt_test,2024.2.2,59.94423986917265,2024-10-08 13h52.17.582122 -0600,
8,X,1,x,7,7,0,x,1,0.3867540000064764,0.1457444999978179,0,7,7,7,164.1230429999996,,,,,,,,,,164.110359600003,164.1230429999996,164.1230429999996,164.30499319999944,164.33950590000313,166.1079017000011,x,1,0.3867540000064764,0.1457444999978179,,000006,001,2024-10-08_13h52.06.418,cpt_test,2024.2.2,59.94423986917265,2024-10-08 13h52.17.582122 -0600,
9,X,1,x,8,8,0,x,1,0.3343970999994781,0.11381270000129007,0,8,8,8,166.11925709999923,,,,,,,,,,166.10823280000477,166.11925709999923,166.11925709999923,166.30345520000265,166.32015980000142,168.10683140000037,x,1,0.3343970999994781,0.11381270000129007,,000006,001,2024-10-08_13h52.06.418,cpt_test,2024.2.2,59.94423986917265,2024-10-08 13h52.17.582122 -0600,
10,Z,0,None,9,9,0,None,1,,,0,9,9,9,168.13547769999423,,,,,,,,,,168.1071954999934,168.13547769999423,168.13547769999423,168.30140270000265,168.35064849999617,170.10472560000198,None,1,,,,000006,001,2024-10-08_13h52.06.418,cpt_test,2024.2.2,59.94423986917265,2024-10-08 13h52.17.582122 -0600,
11,I,0,None,10,10,0,None,1,,,0,10,10,10,170.12989620000008,,,,,,,,,,170.1050413000048,170.12989620000008,170.12989620000008,170.31584369999473,170.33214600000065,172.10296770000423,None,1,,,,000006,001,2024-10-08_13h52.06.418,cpt_test,2024.2.2,59.94423986917265,2024-10-08 13h52.17.582122 -0600,
12,D,0,None,11,11,0,None,1,,,0,11,11,11,172.13256149999506,,,,,,,,,,172.10328630000004,172.13256149999506,172.13256149999506,172.3143146999937,172.3472036000021,174.10174139999435,None,1,,,,000006,001,2024-10-08_13h52.06.418,cpt_test,2024.2.2,59.94423986917265,2024-10-08 13h52.17.582122 -0600,
13,X,1,x,12,12,0,x,1,0.2962638000026345,0.13953549999860115,0,12,12,12,174.1143815999967,,,,,,,,,,174.10205879999558,174.1143815999967,174.1143815999967,174.31263679999392,174.32903369999258,176.11673439999868,x,1,0.2962638000026345,0.13953549999860115,,000006,001,2024-10-08_13h52.06.418,cpt_test,2024.2.2,59.94423986917265,2024-10-08 13h52.17.582122 -0600,
14,Y,0,None,13,13,0,None,1,,,0,13,13,13,176.14632250000432,,,,,,,,,,176.1170822999993,176.14632250000432,176.14632250000432,176.31084679999913,176.36049350000394,178.11506240000017,None,1,,,,000006,001,2024-10-08_13h52.06.418,cpt_test,2024.2.2,59.94423986917265,2024-10-08 13h52.17.582122 -0600,
15,X,1,x,14,14,0,x,1,0.3011555999983102,0.13128309999592602,0,14,14,14,178.12783969999873,,,,,,,,,,178.11538790000486,178.12783969999873,178.12783969999873,178.30928420000419,178.34219379999558,180.11349970000447,x,1,0.3011555999983102,0.13128309999592602,,000006,001,2024-10-08_13h52.06.418,cpt_test,2024.2.2,59.94423986917265,2024-10-08 13h52.17.582122 -0600,
16,X,1,x,15,15,0,x,1,0.2705361999978777,0.1366217000031611,0,15,15,15,180.12444509999477,,,,,,,,,,180.11383729999943,180.12444509999477,180.12444509999477,180.30753720000212,180.32401209999807,182.1116095000034,x,1,0.2705361999978777,0.1366217000031611,,000006,001,2024-10-08_13h52.06.418,cpt_test,2024.2.2,59.94423986917265,2024-10-08 13h52.17.582122 -0600,
17,A,0,None,16,16,0,None,1,,,0,16,16,16,182.12437279999722,,,,,,,,,,182.1119367999927,182.12437279999722,182.12437279999722,182.30612170000677,182.33889509999426,184.1104251999932,None,1,,,,000006,001,2024-10-08_13h52.06.418,cpt_test,2024.2.2,59.94423986917265,2024-10-08 13h52.17.582122 -0600,
18,J,0,None,17,17,0,None,1,,,0,17,17,17,184.13510010000027,,,,,,,,,,184.11076320000575,184.13510010000027,184.13510010000027,184.3041155999963,184.33725979999872,186.10809759999393,None,1,,,,000006,001,2024-10-08_13h52.06.418,cpt_test,2024.2.2,59.94423986917265,2024-10-08 13h52.17.582122 -0600,
19,G,0,None,18,18,0,None,1,,,0,18,18,18,186.1208009999973,,,,,,,,,,186.1084106000053,186.1208009999973,186.1208009999973,186.30284170000232,186.3357216000004,188.10684019999462,None,1,,,,000006,001,2024-10-08_13h52.06.418,cpt_test,2024.2.2,59.94423986917265,2024-10-08 13h52.17.582122 -0600,
20,X,1,x,19,19,0,x,1,0.3267060000071069,0.1662378000037279,0,19,19,19,188.11968669999624,,,,,,,,,,188.10715470000287,188.11968669999624,188.11968669999624,188.3012396999984,188.3340884999925,190.10523909999756,x,1,0.3267060000071069,0.1662378000037279,,000006,001,2024-10-08_13h52.06.418,cpt_test,2024.2.2,59.94423986917265,2024-10-08 13h52.17.582122 -0600,
21,T,0,None,20,20,0,None,1,,,0,20,20,20,190.13442699999723,,,,,,,,,,190.10558570000285,190.13442699999723,190.13442699999723,190.30193640000653,190.33216879999964,192.1034917999932,None,1,,,,000006,001,2024-10-08_13h52.06.418,cpt_test,2024.2.2,59.94423986917265,2024-10-08 13h52.17.582122 -0600,
22,S,0,None,21,21,0,None,1,,,0,21,21,21,192.12821349999285,,,,,,,,,,192.10381650000636,192.12821349999285,192.12821349999285,192.31418990000384,192.33051060000435,194.10179889999563,None,1,,,,000006,001,2024-10-08_13h52.06.418,cpt_test,2024.2.2,59.94423986917265,2024-10-08 13h52.17.582122 -0600,
23,X,1,x,22,22,0,x,1,0.3145537999953376,0.12180960000841878,0,22,22,22,194.11445160000585,,,,,,,,,,194.10210570000345,194.11445160000585,194.11445160000585,194.31251230000635,194.3288934000011,196.11643690000346,x,1,0.3145537999953376,0.12180960000841878,,000006,001,2024-10-08_13h52.06.418,cpt_test,2024.2.2,59.94423986917265,2024-10-08 13h52.17.582122 -0600,
24,S,0,None,23,23,0,None,1,,,0,23,23,23,196.1296932999976,,,,,,,,,,196.1167606999952,196.1296932999976,196.1296932999976,196.31074539999827,196.34388109999418,198.11520489999384,None,1,,,,000006,001,2024-10-08_13h52.06.418,cpt_test,2024.2.2,59.94423986917265,2024-10-08 13h52.17.582122 -0600,
25,G,0,None,24,24,0,None,1,,,0,24,24,24,198.1279518999945,,,,,,,,,,198.1155246999988,198.1279518999945,198.1279518999945,198.3094776999933,198.34255070000654,200.11458979999588,None,1,,,,000006,001,2024-10-08_13h52.06.418,cpt_test,2024.2.2,59.94423986917265,2024-10-08 13h52.17.582122 -0600,
26,O,0,None,25,25,0,None,1,,,0,25,25,25,200.12881690000359,,,,,,,,,,200.1150084999972,200.12881690000359,200.12881690000359,200.30781660000503,200.3408086999989,202.1123254999984,None,1,,,,000006,001,2024-10-08_13h52.06.418,cpt_test,2024.2.2,59.94423986917265,2024-10-08 13h52.17.582122 -0600,
27,P,0,None,26,26,0,None,1,,,0,26,26,26,202.12548139999853,,,,,,,,,,202.11264170000504,202.12548139999853,202.12548139999853,202.30613019999873,202.3393064999982,204.11045550000563,None,1,,,,000006,001,2024-10-08_13h52.06.418,cpt_test,2024.2.2,59.94423986917265,2024-10-08 13h52.17.582122 -0600,
28,Z,0,None,27,27,0,None,1,,,0,27,27,27,204.12322989999666,,,,,,,,,,204.1107639999973,204.12322989999666,204.12322989999666,204.3045456999971,204.33750039999723,206.10852819999855,None,1,,,,000006,001,2024-10-08_13h52.06.418,cpt_test,2024.2.2,59.94423986917265,2024-10-08 13h52.17.582122 -0600,
29,X,1,x,28,28,0,x,1,0.273393000010401,0.14031939998676535,0,28,28,28,206.1215710999968,,,,,,,,,,206.1088865000056,206.1215710999968,206.1215710999968,206.30295270000352,206.33574949999456,208.10680379999394,x,1,0.273393000010401,0.14031939998676535,,000006,001,2024-10-08_13h52.06.418,cpt_test,2024.2.2,59.94423986917265,2024-10-08 13h52.17.582122 -0600,
30,I,0,None,29,29,0,None,1,,,0,29,29,29,208.11984650000522,,,,,,,,,,208.10712610000337,208.11984650000522,208.11984650000522,208.3011167999939,208.33434200000193,210.10555740000564,None,1,,,,000006,001,2024-10-08_13h52.06.418,cpt_test,2024.2.2,59.94423986917265,2024-10-08 13h52.17.582122 -0600,
31,F,0,None,30,30,0,None,1,,,0,30,30,30,210.13524770000367,,,,,,,,,,210.10587980000128,210.13524770000367,210.13524770000367,210.29940809999243,210.34922819999338,212.10330489999615,None,1,,,,000006,001,2024-10-08_13h52.06.418,cpt_test,2024.2.2,59.94423986917265,2024-10-08 13h52.17.582122 -0600,
32,M,0,None,31,31,0,None,1,,,0,31,31,31,212.1360602000059,,,,,,,,,,212.10361370000464,212.1360602000059,212.1360602000059,212.2991730999929,212.34766329999547,214.10189439999522,None,1,,,,000006,001,2024-10-08_13h52.06.418,cpt_test,2024.2.2,59.94423986917265,2024-10-08 13h52.17.582122 -0600,
33,T,0,None,32,32,0,None,1,,,0,32,32,32,214.11503279999306,,,,,,,,,,214.102203500006,214.11503279999306,214.11503279999306,214.31296999999904,214.32923519999895,216.11722489999374,None,1,,,,000006,001,2024-10-08_13h52.06.418,cpt_test,2024.2.2,59.94423986917265,2024-10-08 13h52.17.582122 -0600,
34,A,0,None,33,33,0,None,1,,,0,33,33,33,216.13007939999807,,,,,,,,,,216.11755009999615,216.13007939999807,216.13007939999807,216.31121030000213,216.3443788000004,218.11541189999843,None,1,,,,000006,001,2024-10-08_13h52.06.418,cpt_test,2024.2.2,59.94423986917265,2024-10-08 13h52.17.582122 -0600,
35,E,0,None,34,34,0,None,1,,,0,34,34,34,218.14163949999784,,,,,,,,,,218.11571680000634,218.14163949999784,218.14163949999784,218.30958380000084,218.34278829999676,220.113746300005,None,1,,,,000006,001,2024-10-08_13h52.06.418,cpt_test,2024.2.2,59.94423986917265,2024-10-08 13h52.17.582122 -0600,
36,X,1,x,35,35,0,x,1,0.33922809999785386,0.14101050001045223,0,35,35,35,220.12636239999847,,,,,,,,,,220.11405560000276,220.12636239999847,220.12636239999847,220.30792540000402,220.34098029999586,222.11190960000386,x,1,0.33922809999785386,0.14101050001045223,,000006,001,2024-10-08_13h52.06.418,cpt_test,2024.2.2,59.94423986917265,2024-10-08 13h52.17.582122 -0600,
37,A,0,None,36,36,0,None,1,,,0,36,36,36,222.12470499999472,,,,,,,,,,222.1122500000056,222.12470499999472,222.12470499999472,222.30641160000232,222.33943680000084,224.1103926999931,None,1,,,,000006,001,2024-10-08_13h52.06.418,cpt_test,2024.2.2,59.94423986917265,2024-10-08 13h52.17.582122 -0600,
38,S,0,None,37,37,0,None,1,,,0,37,37,37,224.12310670000443,,,,,,,,,,224.11069739999948,224.12310670000443,224.12310670000443,224.30458850000286,224.33773339999607,226.10890340000333,None,1,,,,000006,001,2024-10-08_13h52.06.418,cpt_test,2024.2.2,59.94423986917265,2024-10-08 13h52.17.582122 -0600,
39,U,0,None,38,38,0,None,1,,,0,38,38,38,226.14004410000052,,,,,,,,,,226.1092304000049,226.14004410000052,226.14004410000052,226.3031495000032,226.35282440000447,228.10679510000045,None,1,,,,000006,001,2024-10-08_13h52.06.418,cpt_test,2024.2.2,59.94423986917265,2024-10-08 13h52.17.582122 -0600,
40,U,0,None,39,39,0,None,1,,,0,39,39,39,228.11837650000234,,,,,,,,,,228.10710110000218,228.11837650000234,228.11837650000234,228.30134360000375,228.3178928999987,230.10555029999523,None,1,,,,000006,001,2024-10-08_13h52.06.418,cpt_test,2024.2.2,59.94423986917265,2024-10-08 13h52.17.582122 -0600,
41,Q,0,None,40,40,0,None,1,,,0,40,40,40,230.13472380000167,,,,,,,,,,230.10586850000254,230.13472380000167,230.13472380000167,230.29992809999385,230.34953039999527,232.10371219999797,None,1,,,,000006,001,2024-10-08_13h52.06.418,cpt_test,2024.2.2,59.94423986917265,2024-10-08 13h52.17.582122 -0600,
42,E,0,None,41,41,0,None,1,,,0,41,41,41,232.11643969999568,,,,,,,,,,232.10401860000275,232.11643969999568,232.11643969999568,232.31485280000197,232.33130689999962,234.10217199999897,None,1,,,,000006,001,2024-10-08_13h52.06.418,cpt_test,2024.2.2,59.94423986917265,2024-10-08 13h52.17.582122 -0600,
43,B,0,None,42,42,0,None,1,,,0,42,42,42,234.1327786000038,,,,,,,,,,234.10247899999376,234.1327786000038,234.1327786000038,234.31321750000643,234.34607299999334,236.11684889999742,None,1,,,,000006,001,2024-10-08_13h52.06.418,cpt_test,2024.2.2,59.94423986917265,2024-10-08 13h52.17.582122 -0600,
44,O,0,None,43,43,0,None,1,,,0,43,43,43,236.1302033999964,,,,,,,,,,236.11715079999703,236.1302033999964,236.1302033999964,236.31128409999656,236.34409559999767,238.11530170000333,None,1,,,,000006,001,2024-10-08_13h52.06.418,cpt_test,2024.2.2,59.94423986917265,2024-10-08 13h52.17.582122 -0600,
45,E,0,None,44,44,0,None,1,,,0,44,44,44,238.12809870000638,,,,,,,,,,238.1156198999961,238.12809870000638,238.12809870000638,238.30953620000219,238.3425503000035,240.113677500005,None,1,,,,000006,001,2024-10-08_13h52.06.418,cpt_test,2024.2.2,59.94423986917265,2024-10-08 13h52.17.582122 -0600,
46,F,0,None,45,45,0,None,1,,,0,45,45,45,240.1263736999972,,,,,,,,,,240.11398209999606,240.1263736999972,240.1263736999972,240.30811430000176,240.3413625999965,242.11350279999897,None,1,,,,000006,001,2024-10-08_13h52.06.418,cpt_test,2024.2.2,59.94423986917265,2024-10-08 13h52.17.582122 -0600,
47,V,0,None,46,46,0,None,1,,,0,46,46,46,242.1408303000062,,,,,,,,,,242.11391220000223,242.1408303000062,242.1408303000062,242.30677399999695,242.339481300005,244.1102921999991,None,1,,,,000006,001,2024-10-08_13h52.06.418,cpt_test,2024.2.2,59.94423986917265,2024-10-08 13h52.17.582122 -0600,
48,X,1,x,47,47,0,x,1,0.3414966000127606,0.15345189999789,0,47,47,47,244.12291659999755,,,,,,,,,,244.11060479999287,244.12291659999755,244.12291659999755,244.30483199999435,244.33777660000487,246.1087378999946,x,1,0.3414966000127606,0.15345189999789,,000006,001,2024-10-08_13h52.06.418,cpt_test,2024.2.2,59.94423986917265,2024-10-08 13h52.17.582122 -0600,
49,X,1,x,48,48,0,x,1,0.3743588999932399,0.14090060000307858,0,48,48,48,246.12006380000093,,,,,,,,,,246.10906590000377,246.12006380000093,246.12006380000093,246.30334009999933,246.31952340000134,248.1075179000036,x,1,0.3743588999932399,0.14090060000307858,,000006,001,2024-10-08_13h52.06.418,cpt_test,2024.2.2,59.94423986917265,2024-10-08 13h52.17.582122 -0600,
50,C,0,None,49,49,0,None,1,,,0,49,49,49,248.138463700001,,,,,,,,,,248.10787100000016,248.138463700001,248.138463700001,248.3018213000032,248.3513280000043,250.10528069999418,None,1,,,,000006,001,2024-10-08_13h52.06.418,cpt_test,2024.2.2,59.94423986917265,2024-10-08 13h52.17.582122 -0600,
51,M,0,None,50,50,0,None,1,,,0,50,50,50,250.11834570000065,,,,,,,,,,250.10558239999227,250.11834570000065,250.11834570000065,250.30003529999522,250.33286520000547,252.1053607000067,None,1,,,,000006,001,2024-10-08_13h52.06.418,cpt_test,2024.2.2,59.94423986917265,2024-10-08 13h52.17.582122 -0600,
52,D,0,None,51,51,0,None,1,,,0,51,51,51,252.1196886999969,,,,,,,,,,252.10574980000092,252.1196886999969,252.1196886999969,252.31497979999403,252.33126599999378,254.10230460000457,None,1,,,,000006,001,2024-10-08_13h52.06.418,cpt_test,2024.2.2,59.94423986917265,2024-10-08 13h52.17.582122 -0600,
53,X,1,x,52,52,0,x,1,0.36890080000739545,0.15910839999560267,0,52,52,52,254.11508360000153,,,,,,,,,,254.1026120000024,254.11508360000153,254.11508360000153,254.31336349999765,254.32981300000392,256.1019809999998,x,1,0.36890080000739545,0.15910839999560267,,000006,001,2024-10-08_13h52.06.418,cpt_test,2024.2.2,59.94423986917265,2024-10-08 13h52.17.582122 -0600,
54,K,0,None,53,53,0,None,1,,,0,53,53,53,256.1393665999931,,,,,,,,,,256.10238969999773,256.1393665999931,256.1393665999931,256.3125706999999,256.34624220000114,258.1170259000064,None,1,,,,000006,001,2024-10-08_13h52.06.418,cpt_test,2024.2.2,59.94423986917265,2024-10-08 13h52.17.582122 -0600,
55,X,1,x,54,54,0,x,1,0.3520490999944741,0.15914730000076815,0,54,54,54,258.1313678000006,,,,,,,,,,258.11742189999495,258.1313678000006,258.1313678000006,258.3020950999926,258.33716260000074,260.11427960000583,x,1,0.3520490999944741,0.15914730000076815,260.10836640000343,000006,001,2024-10-08_13h52.06.418,cpt_test,2024.2.2,59.94423986917265,2024-10-08 13h52.17.582122 -0600,
56,N,0,None,55,55,0,None,1,,,0,55,55,55,260.1456468999968,,,,,,,,,,260.11459480000485,260.1456468999968,260.1456468999968,260.3118148999929,260.35812859999714,262.1126258000004,None,1,,,,000006,001,2024-10-08_13h52.06.418,cpt_test,2024.2.2,59.94423986917265,2024-10-08 13h52.17.582122 -0600,
57,M,0,None,56,56,0,None,1,,,0,56,56,56,262.1254537000059,,,,,,,,,,262.11292620000313,262.1254537000059,262.1254537000059,262.30671900000016,262.3396655999968,264.11075880000135,None,1,,,,000006,001,2024-10-08_13h52.06.418,cpt_test,2024.2.2,59.94423986917265,2024-10-08 13h52.17.582122 -0600,
58,X,1,x,57,57,0,x,1,0.3492946999904234,0.16629560000728816,0,57,57,57,264.1232988999982,,,,,,,,,,264.1110647000023,264.1232988999982,264.1232988999982,264.30589730000065,264.3226391999924,266.10918250000395,x,1,0.3492946999904234,0.16629560000728816,,000006,001,2024-10-08_13h52.06.418,cpt_test,2024.2.2,59.94423986917265,2024-10-08 13h52.17.582122 -0600,
59,F,0,None,58,58,0,None,1,,,0,58,58,58,266.1221951000043,,,,,,,,,,266.1095020999928,266.1221951000043,266.1221951000043,266.30339479999384,266.33650320000015,268.10582460000296,None,1,,,268.10144549999677,000006,001,2024-10-08_13h52.06.418,cpt_test,2024.2.2,59.94423986917265,2024-10-08 13h52.17.582122 -0600,
60,A,0,None,59,59,0,None,1,,,0,59,59,59,268.11853419999534,,,,,,,,,,268.1060964999924,268.11853419999534,268.11853419999534,268.3019553000049,268.3181265000021,270.10587879999366,None,1,,,,000006,001,2024-10-08_13h52.06.418,cpt_test,2024.2.2,59.94423986917265,2024-10-08 13h52.17.582122 -0600,
61,X,1,x,60,60,0,x,1,0.3908502000122098,0.18145709999953397,0,60,60,60,270.1184809999977,,,,,,,,,,270.10618149999937,270.1184809999977,270.1184809999977,270.3003408999939,270.3332395000034,272.1041408000019,x,1,0.3908502000122098,0.18145709999953397,,000006,001,2024-10-08_13h52.06.418,cpt_test,2024.2.2,59.94423986917265,2024-10-08 13h52.17.582122 -0600,
62,V,0,None,61,61,0,None,1,,,0,61,61,61,272.11680040000647,,,,,,,,,,272.1044594999985,272.11680040000647,272.11680040000647,272.3151668999926,272.3316277999984,274.10263749999285,None,1,,,,000006,001,2024-10-08_13h52.06.418,cpt_test,2024.2.2,59.94423986917265,2024-10-08 13h52.17.582122 -0600,
63,U,0,None,62,62,0,None,1,,,0,62,62,62,274.1156774999981,,,,,,,,,,274.1029578000016,274.1156774999981,274.1156774999981,274.3134136000008,274.32972419999714,276.1009507999988,None,1,,,,000006,001,2024-10-08_13h52.06.418,cpt_test,2024.2.2,59.94423986917265,2024-10-08 13h52.17.582122 -0600,
64,M,0,None,63,63,0,None,1,,,0,63,63,63,276.1140069999965,,,,,,,,,,276.10125459999836,276.1140069999965,276.1140069999965,276.31177339999704,276.3283631999948,278.115862000006,None,1,,,,000006,001,2024-10-08_13h52.06.418,cpt_test,2024.2.2,59.94423986917265,2024-10-08 13h52.17.582122 -0600,
65,X,1,x,64,64,0,x,1,0.36658849999366794,0.16369430000486318,0,64,64,64,278.12906930000463,,,,,,,,,,278.1161709000007,278.12906930000463,278.12906930000463,278.3101292999927,278.3433167000039,280.1140216000058,x,1,0.36658849999366794,0.16369430000486318,,000006,001,2024-10-08_13h52.06.418,cpt_test,2024.2.2,59.94423986917265,2024-10-08 13h52.17.582122 -0600,
66,A,0,None,65,65,0,None,1,,,0,65,65,65,280.1270838000055,,,,,,,,,,280.11434289999306,280.1270838000055,280.1270838000055,280.3084952000063,280.3416487000068,282.1138892000017,None,1,,,,000006,001,2024-10-08_13h52.06.418,cpt_test,2024.2.2,59.94423986917265,2024-10-08 13h52.17.582122 -0600,
67,N,0,None,66,66,0,None,1,,,0,66,66,66,282.12848959999974,,,,,,,,,,282.1142861999979,282.12848959999974,282.12848959999974,282.3069830000022,282.33996349999506,284.11116250000487,None,1,,,,000006,001,2024-10-08_13h52.06.418,cpt_test,2024.2.2,59.94423986917265,2024-10-08 13h52.17.582122 -0600,
68,H,0,None,67,67,0,None,1,,,0,67,67,67,284.14148540000315,,,,,,,,,,284.11149140000634,284.14148540000315,284.14148540000315,284.3052810999943,284.35510200000135,286.109249000001,None,1,,,,000006,001,2024-10-08_13h52.06.418,cpt_test,2024.2.2,59.94423986917265,2024-10-08 13h52.17.582122 -0600,
69,A,0,None,68,68,0,None,1,,,0,68,68,68,286.1223364000034,,,,,,,,,,286.10954999999376,286.1223364000034,286.1223364000034,286.30331780000415,286.336570200001,288.1080543999997,None,1,,,,000006,001,2024-10-08_13h52.06.418,cpt_test,2024.2.2,59.94423986917265,2024-10-08 13h52.17.582122 -0600,
70,X,1,x,69,69,0,x,1,0.27851940000255127,0.16170709999278188,0,69,69,69,288.121512800004,,,,,,,,,,288.1084133999975,288.121512800004,288.121512800004,288.3020331000007,288.3350422999938,290.10627309999836,x,1,0.27851940000255127,0.16170709999278188,,000006,001,2024-10-08_13h52.06.418,cpt_test,2024.2.2,59.94423986917265,2024-10-08 13h52.17.582122 -0600,
71,F,0,None,70,70,0,None,1,,,0,70,70,70,290.1188070999924,,,,,,,,,,290.10661240000627,290.1188070999924,290.1188070999924,290.300273300003,290.33349109999835,292.1044194999995,None,1,,,,000006,001,2024-10-08_13h52.06.418,cpt_test,2024.2.2,59.94423986917265,2024-10-08 13h52.17.582122 -0600,
72,N,0,None,71,71,0,None,1,,,0,71,71,71,292.117115999994,,,,,,,,,,292.1047239000036,292.117115999994,292.117115999994,292.31638279999606,292.3333155,294.1026395999943,None,1,,,,000006,001,2024-10-08_13h52.06.418,cpt_test,2024.2.2,59.94423986917265,2024-10-08 13h52.17.582122 -0600,
73,K,0,None,72,72,0,None,1,,,0,72,72,72,294.11542319999717,,,,,,,,,,294.10294290000456,294.11542319999717,294.11542319999717,294.31370929999684,294.32997669999895,296.10103619999427,None,1,,,,000006,001,2024-10-08_13h52.06.418,cpt_test,2024.2.2,59.94423986917265,2024-10-08 13h52.17.582122 -0600,
74,Y,0,None,73,73,0,None,1,,,0,73,73,73,296.1138209000055,,,,,,,,,,296.10133700000006,296.1138209000055,296.1138209000055,296.3118906000018,296.32846309999877,298.1016653999977,None,1,,,,000006,001,2024-10-08_13h52.06.418,cpt_test,2024.2.2,59.94423986917265,2024-10-08 13h52.17.582122 -0600,
75,Y,0,None,74,74,0,None,1,,,0,74,74,74,298.1111622000026,,,,,,,,,,298.10206770000514,298.1111622000026,298.1111622000026,298.3148571000056,298.3148571000056,300.11444330000086,None,1,,,,000006,001,2024-10-08_13h52.06.418,cpt_test,2024.2.2,59.94423986917265,2024-10-08 13h52.17.582122 -0600,
76,R,0,None,75,75,0,None,1,,,0,75,75,75,300.1273572000064,,,,,,,,,,300.1147656999965,300.1273572000064,300.1273572000064,300.3089411999972,300.3421343999944,302.11323750000156,None,1,,,,000006,001,2024-10-08_13h52.06.418,cpt_test,2024.2.2,59.94423986917265,2024-10-08 13h52.17.582122 -0600,
77,X,1,x,76,76,0,x,1,0.38078810001024976,0.16314920000149868,0,76,76,76,302.12633100000676,,,,,,,,,,302.1135445999971,302.12633100000676,302.12633100000676,302.30702189999283,302.3402644000016,304.1110673999938,x,1,0.38078810001024976,0.16314920000149868,,000006,001,2024-10-08_13h52.06.418,cpt_test,2024.2.2,59.94423986917265,2024-10-08 13h52.17.582122 -0600,
78,R,0,None,77,77,0,None,1,,,0,77,77,77,304.1250293000048,,,,,,,,,,304.1113905999955,304.1250293000048,304.1250293000048,304.30556379999325,304.3383812999964,306.1096492999932,None,1,,,,000006,001,2024-10-08_13h52.06.418,cpt_test,2024.2.2,59.94423986917265,2024-10-08 13h52.17.582122 -0600,
79,F,0,None,78,78,0,None,1,,,0,78,78,78,306.1227693999972,,,,,,,,,,306.10994959999516,306.1227693999972,306.1227693999972,306.30380549999245,306.33686739999393,308.10762429999886,None,1,,,,000006,001,2024-10-08_13h52.06.418,cpt_test,2024.2.2,59.94423986917265,2024-10-08 13h52.17.582122 -0600,
80,K,0,None,79,79,0,None,1,,,0,79,79,79,308.1208331999951,,,,,,,,,,308.1079909999971,308.1208331999951,308.1208331999951,308.3020714000013,308.33531660000153,310.1064050999994,None,1,,,,000006,001,2024-10-08_13h52.06.418,cpt_test,2024.2.2,59.94423986917265,2024-10-08 13h52.17.582122 -0600,
81,O,0,None,80,80,0,None,1,,,0,80,80,80,310.119509199998,,,,,,,,,,310.10672379999596,310.119509199998,310.119509199998,310.3005441999994,310.3336258000054,312.10465999999724,None,1,,,,000006,001,2024-10-08_13h52.06.418,cpt_test,2024.2.2,59.94423986917265,2024-10-08 13h52.17.582122 -0600,
82,F,0,None,81,81,0,None,1,,,0,81,81,81,312.1177159999934,,,,,,,,,,312.1049767999939,312.1177159999934,312.1177159999934,312.31569760000275,312.3319579999952,314.1031656999985,None,1,,,,000006,001,2024-10-08_13h52.06.418,cpt_test,2024.2.2,59.94423986917265,2024-10-08 13h52.17.582122 -0600,
83,F,0,None,82,82,0,None,1,,,0,82,82,82,314.11397969999234,,,,,,,,,,314.1034826999967,314.11397969999234,314.11397969999234,314.3137518000003,314.3137518000003,316.1014415999962,None,1,,,,000006,001,2024-10-08_13h52.06.418,cpt_test,2024.2.2,59.94423986917265,2024-10-08 13h52.17.582122 -0600,
84,W,0,None,83,83,0,None,1,,,0,83,83,83,316.12894409999717,,,,,,,,,,316.10174389999884,316.12894409999717,316.12894409999717,316.31252209999366,316.3286567000032,318.1163951000053,None,1,,,,000006,001,2024-10-08_13h52.06.418,cpt_test,2024.2.2,59.94423986917265,2024-10-08 13h52.17.582122 -0600,
85,X,1,x,84,84,0,x,1,0.3925999000057345,0.16576859999622684,0,84,84,84,318.12940590000653,,,,,,,,,,318.1167087000067,318.12940590000653,318.12940590000653,318.3107236999931,318.34367580000253,320.1147040999931,x,1,0.3925999000057345,0.16576859999622684,,000006,001,2024-10-08_13h52.06.418,cpt_test,2024.2.2,59.94423986917265,2024-10-08 13h52.17.582122 -0600,
86,J,0,None,85,85,0,None,1,,,0,85,85,85,320.12789730000077,,,,,,,,,,320.1150431999995,320.12789730000077,320.12789730000077,320.31403310000314,320.33557799999835,322.1129959999962,None,1,,,,000006,001,2024-10-08_13h52.06.418,cpt_test,2024.2.2,59.94423986917265,2024-10-08 13h52.17.582122 -0600,
87,N,0,None,86,86,0,None,1,,,0,86,86,86,322.1257914000016,,,,,,,,,,322.1133131999959,322.1257914000016,322.1257914000016,322.30745219999517,322.3404160999926,324.1109603999939,None,1,,,,000006,001,2024-10-08_13h52.06.418,cpt_test,2024.2.2,59.94423986917265,2024-10-08 13h52.17.582122 -0600,
88,X,1,x,87,87,0,x,1,0.3556329999992158,0.16481729999941308,0,87,87,87,324.1238200999942,,,,,,,,,,324.1112639000057,324.1238200999942,324.1238200999942,324.3067563999939,324.32350959999894,326.10943199999747,x,1,0.3556329999992158,0.16481729999941308,,000006,001,2024-10-08_13h52.06.418,cpt_test,2024.2.2,59.94423986917265,2024-10-08 13h52.17.582122 -0600,
89,T,0,None,88,88,0,None,1,,,0,88,88,88,326.122065699994,,,,,,,,,,326.10975560000225,326.122065699994,326.122065699994,326.303934800002,326.33709679999447,328.1078998000012,None,1,,,,000006,001,2024-10-08_13h52.06.418,cpt_test,2024.2.2,59.94423986917265,2024-10-08 13h52.17.582122 -0600,
90,I,0,None,89,89,0,None,1,,,0,89,89,89,328.1204016999982,,,,,,,,,,328.10821849999775,328.1204016999982,328.1204016999982,328.3022726000054,328.3353468999994,330.1063168999972,None,1,,,,000006,001,2024-10-08_13h52.06.418,cpt_test,2024.2.2,59.94423986917265,2024-10-08 13h52.17.582122 -0600,
91,P,0,None,90,90,0,None,1,,,0,90,90,90,330.11895930000173,,,,,,,,,,330.10664309999265,330.11895930000173,330.11895930000173,330.30067840000265,330.3338204000029,332.1050594999979,None,1,,,,000006,001,2024-10-08_13h52.06.418,cpt_test,2024.2.2,59.94423986917265,2024-10-08 13h52.17.582122 -0600,
92,X,1,x,91,91,0,x,1,0.36949209999875166,0.1488898999959929,0,91,91,91,332.118370199998,,,,,,,,,,332.10539369999606,332.118370199998,332.118370199998,332.3158109999931,332.33197640000435,334.1029179000034,x,1,0.36949209999875166,0.1488898999959929,,000006,001,2024-10-08_13h52.06.418,cpt_test,2024.2.2,59.94423986917265,2024-10-08 13h52.17.582122 -0600,
93,B,0,None,92,92,0,None,1,,,0,92,92,92,334.1160804999963,,,,,,,,,,334.1032494999963,334.1160804999963,334.1160804999963,334.3140013999946,334.3303728000028,336.1018216999946,None,1,,,,000006,001,2024-10-08_13h52.06.418,cpt_test,2024.2.2,59.94423986917265,2024-10-08 13h52.17.582122 -0600,
94,M,0,None,93,93,0,None,1,,,0,93,93,93,336.11545379999734,,,,,,,,,,336.1021652000054,336.11545379999734,336.11545379999734,336.3125992999994,336.328688900001,338.1161146999948,None,1,,,,000006,001,2024-10-08_13h52.06.418,cpt_test,2024.2.2,59.94423986917265,2024-10-08 13h52.17.582122 -0600,
95,B,0,None,94,94,0,None,1,,,0,94,94,94,338.12953770000604,,,,,,,,,,338.11641800000507,338.12953770000604,338.12953770000604,338.31077480000386,338.34389089999604,340.11467310000444,None,1,,,,000006,001,2024-10-08_13h52.06.418,cpt_test,2024.2.2,59.94423986917265,2024-10-08 13h52.17.582122 -0600,
96,I,0,None,95,95,0,None,1,,,0,95,95,95,340.1278127999976,,,,,,,,,,340.11498660000507,340.1278127999976,340.1278127999976,340.3092239999969,340.34205239999574,342.1149277999939,None,1,,,,000006,001,2024-10-08_13h52.06.418,cpt_test,2024.2.2,59.94423986917265,2024-10-08 13h52.17.582122 -0600,
97,X,1,x,96,96,0,x,1,0.3228611000085948,0.14832159999059513,0,96,96,96,342.1297545999987,,,,,,,,,,342.11530859999766,342.1297545999987,342.1297545999987,342.3075603000034,342.34061099999235,344.1119815999991,x,1,0.3228611000085948,0.14832159999059513,,000006,001,2024-10-08_13h52.06.418,cpt_test,2024.2.2,59.94423986917265,2024-10-08 13h52.17.582122 -0600,
98,J,0,None,97,97,0,None,1,,,0,97,97,97,344.12486060000083,,,,,,,,,,344.1123094000068,344.12486060000083,344.12486060000083,344.30578320000495,344.3389477000019,346.1096735000028,None,1,,,,000006,001,2024-10-08_13h52.06.418,cpt_test,2024.2.2,59.94423986917265,2024-10-08 13h52.17.582122 -0600,
99,X,1,x,98,98,0,x,1,0.38368799998715986,0.173701700012316,0,98,98,98,346.12287779999315,,,,,,,,,,346.1099753000017,346.12287779999315,346.12287779999315,346.30435299999954,346.33718800000497,348.1082776999974,x,1,0.38368799998715986,0.173701700012316,,000006,001,2024-10-08_13h52.06.418,cpt_test,2024.2.2,59.94423986917265,2024-10-08 13h52.17.582122 -0600,
100,U,0,None,99,99,0,x,0,0.3886054000031436,0.10352409999177326,0,99,99,99,348.12144499999704,,,,,,,,,,348.10860550000507,348.12144499999704,348.12144499999704,348.3027080000029,348.3355647999997,350.1064789999946,x,0,0.3886054000031436,0.10352409999177326,,000006,001,2024-10-08_13h52.06.418,cpt_test,2024.2.2,59.94423986917265,2024-10-08 13h52.17.582122 -0600,
101,D,0,None,100,100,0,None,1,,,0,100,100,100,350.11977540000225,,,,,,,,,,350.1068280000036,350.11977540000225,350.11977540000225,350.3008526000049,350.3340571000008,352.1052587000013,None,1,,,,000006,001,2024-10-08_13h52.06.418,cpt_test,2024.2.2,59.94423986917265,2024-10-08 13h52.17.582122 -0600,
102,X,1,x,101,101,0,x,1,0.38444710000476334,0.15459679999912623,0,101,101,101,352.1186385000037,,,,,,,,,,352.1055805999931,352.1186385000037,352.1186385000037,352.3158409000025,352.3322565999988,354.10342949999904,x,1,0.38444710000476334,0.15459679999912623,,000006,001,2024-10-08_13h52.06.418,cpt_test,2024.2.2,59.94423986917265,2024-10-08 13h52.17.582122 -0600,
103,X,1,x,102,102,0,x,1,0.3854049999936251,0.1554792999959318,0,102,102,102,354.114545599994,,,,,,,,,,354.1037522999977,354.114545599994,354.114545599994,354.3140548999945,354.3140548999945,356.10155880000093,x,1,0.3854049999936251,0.1554792999959318,,000006,001,2024-10-08_13h52.06.418,cpt_test,2024.2.2,59.94423986917265,2024-10-08 13h52.17.582122 -0600,
104,N,0,None,103,103,0,None,1,,,0,103,103,103,356.11480900000606,,,,,,,,,,356.1018966999982,356.11480900000606,356.11480900000606,356.3127455000067,356.329086800004,358.11649669999315,None,1,,,,000006,001,2024-10-08_13h52.06.418,cpt_test,2024.2.2,59.94423986917265,2024-10-08 13h52.17.582122 -0600,
105,U,0,None,104,104,0,None,1,,,0,104,104,104,358.12967070000013,,,,,,,,,,358.11681740000495,358.12967070000013,358.12967070000013,358.3109407000011,358.34405299999344,360.1153104999976,None,1,,,,000006,001,2024-10-08_13h52.06.418,cpt_test,2024.2.2,59.94423986917265,2024-10-08 13h52.17.582122 -0600,
106,T,0,None,105,105,0,None,1,,,0,105,105,105,360.12895050000225,,,,,,,,,,360.1156498000055,360.12895050000225,360.12895050000225,360.30933930000174,360.342381399998,362.1134774999955,None,1,,,,000006,001,2024-10-08_13h52.06.418,cpt_test,2024.2.2,59.94423986917265,2024-10-08 13h52.17.582122 -0600,
107,W,0,None,106,106,0,None,1,,,0,106,106,106,362.12667209999927,,,,,,,,,,362.1137998000049,362.12667209999927,362.12667209999927,362.30763379999553,362.34049879999657,364.11184119999234,None,1,,,,000006,001,2024-10-08_13h52.06.418,cpt_test,2024.2.2,59.94423986917265,2024-10-08 13h52.17.582122 -0600,
108,N,0,None,107,107,0,None,1,,,0,107,107,107,364.12487410000176,,,,,,,,,,364.11215909999737,364.12487410000176,364.12487410000176,364.3062019000063,364.33896949999325,366.1099239000032,None,1,,,,000006,001,2024-10-08_13h52.06.418,cpt_test,2024.2.2,59.94423986917265,2024-10-08 13h52.17.582122 -0600,
109,R,0,None,108,108,0,None,1,,,0,108,108,108,366.12351489999855,,,,,,,,,,366.1102555999969,366.12351489999855,366.12351489999855,366.3044855000044,366.33725529999356,368.1088718999963,None,1,,,,000006,001,2024-10-08_13h52.06.418,cpt_test,2024.2.2,59.94423986917265,2024-10-08 13h52.17.582122 -0600,
110,X,1,x,109,109,0,x,1,0.39199679999728687,0.14963069999066647,0,109,109,109,368.1222493999958,,,,,,,,,,368.1092359000031,368.1222493999958,368.1222493999958,368.3028808999952,368.3356941999955,370.1065920999972,x,1,0.39199679999728687,0.14963069999066647,,000006,001,2024-10-08_13h52.06.418,cpt_test,2024.2.2,59.94423986917265,2024-10-08 13h52.17.582122 -0600,
111,A,0,None,110,110,0,None,1,,,0,110,110,110,370.11975480000547,,,,,,,,,,370.10692960000597,370.11975480000547,370.11975480000547,370.3011816999933,370.33416879999277,372.10506129999703,None,1,,,,000006,001,2024-10-08_13h52.06.418,cpt_test,2024.2.2,59.94423986917265,2024-10-08 13h52.17.582122 -0600,
112,X,1,x,111,111,0,x,1,0.345783400000073,0.3170618000003742,0,111,111,111,372.1180878000014,,,,,,,,,,372.1053774000029,372.1180878000014,372.1180878000014,372.31610280000314,372.332622300004,374.1034654999967,x,1,0.345783400000073,0.3170618000003742,,000006,001,2024-10-08_13h52.06.418,cpt_test,2024.2.2,59.94423986917265,2024-10-08 13h52.17.582122 -0600,
113,G,0,None,112,112,0,None,1,,,0,112,112,112,374.1165425999934,,,,,,,,,,374.103784299994,374.1165425999934,374.1165425999934,374.31461649999255,374.33069319999777,376.10174030000053,None,1,,,,000006,001,2024-10-08_13h52.06.418,cpt_test,2024.2.2,59.94423986917265,2024-10-08 13h52.17.582122 -0600,
114,O,0,None,113,113,0,None,1,,,0,113,113,113,376.11491610000667,,,,,,,,,,376.10203710000496,376.11491610000667,376.11491610000667,376.3129753999965,376.32923010000377,378.1169966000016,None,1,,,,000006,001,2024-10-08_13h52.06.418,cpt_test,2024.2.2,59.94423986917265,2024-10-08 13h52.17.582122 -0600,
115,U,0,None,114,114,0,None,1,,,0,114,114,114,378.1318522999936,,,,,,,,,,378.11731640000653,378.1318522999936,378.1318522999936,378.3111692999955,378.34419499999785,380.11503460000677,None,1,,,,000006,001,2024-10-08_13h52.06.418,cpt_test,2024.2.2,59.94423986917265,2024-10-08 13h52.17.582122 -0600,
116,X,1,x,115,115,0,x,1,0.31176199999754317,0.11752940001315437,0,115,115,115,380.1281625999982,,,,,,,,,,380.11533460000646,380.1281625999982,380.1281625999982,380.3096397000045,380.34244890000264,382.11385809999774,x,1,0.31176199999754317,0.11752940001315437,,000006,001,2024-10-08_13h52.06.418,cpt_test,2024.2.2,59.94423986917265,2024-10-08 13h52.17.582122 -0600,
117,X,1,x,116,116,0,x,1,0.3466534000035608,0.13450580000062473,0,116,116,116,382.1248157999944,,,,,,,,,,382.1142112999951,382.1248157999944,382.1248157999944,382.3079599000048,382.3241696000041,384.11191710000276,x,1,0.3466534000035608,0.13450580000062473,,000006,001,2024-10-08_13h52.06.418,cpt_test,2024.2.2,59.94423986917265,2024-10-08 13h52.17.582122 -0600,
118,C,0,None,117,117,0,None,1,,,0,117,117,117,384.12449459999334,,,,,,,,,,384.11222660000203,384.12449459999334,384.12449459999334,384.3062525999994,384.33932309999363,386.11197870000615,None,1,,,,000006,001,2024-10-08_13h52.06.418,cpt_test,2024.2.2,59.94423986917265,2024-10-08 13h52.17.582122 -0600,
119,A,0,None,118,118,0,None,1,,,0,118,118,118,386.1267897999933,,,,,,,,,,386.11235860000306,386.1267897999933,386.1267897999933,386.3046306000033,386.33771399999387,388.10825590000604,None,1,,,,000006,001,2024-10-08_13h52.06.418,cpt_test,2024.2.2,59.94423986917265,2024-10-08 13h52.17.582122 -0600,
120,X,1,x,119,119,0,x,1,0.37373000000661705,0.15473629999905825,0,119,119,119,388.1213441,,,,,,,,,,388.1085557000042,388.1213441,388.1213441,388.3030735000066,388.3358903000044,390.1080488000007,x,1,0.37373000000661705,0.15473629999905825,,000006,001,2024-10-08_13h52.06.418,cpt_test,2024.2.2,59.94423986917265,2024-10-08 13h52.17.582122 -0600,
121,H,0,None,120,120,0,None,1,,,0,120,120,120,390.12241070000164,,,,,,,,,,390.1084570999956,390.12241070000164,390.12241070000164,390.3012249000021,390.3344538999954,392.10522169999604,None,1,,,,000006,001,2024-10-08_13h52.06.418,cpt_test,2024.2.2,59.94423986917265,2024-10-08 13h52.17.582122 -0600,
122,M,0,None,121,121,0,None,1,,,0,121,121,121,392.11834539999836,,,,,,,,,,392.10552139999345,392.11834539999836,392.11834539999836,392.2998926,392.33247090000077,394.1040737000003,None,1,,,,000006,001,2024-10-08_13h52.06.418,cpt_test,2024.2.2,59.94423986917265,2024-10-08 13h52.17.582122 -0600,
123,V,0,None,122,122,0,None,1,,,0,122,122,122,394.1191805999988,,,,,,,,,,394.1045352999936,394.1191805999988,394.1191805999988,394.31479370000307,394.3309317999956,396.10189629999513,None,1,,,,000006,001,2024-10-08_13h52.06.418,cpt_test,2024.2.2,59.94423986917265,2024-10-08 13h52.17.582122 -0600,
124,K,0,None,123,123,0,None,1,,,0,123,123,123,396.11515739999595,,,,,,,,,,396.10221589999855,396.11515739999595,396.11515739999595,396.31296110000403,396.32927740000014,398.10210659999575,None,1,,,,000006,001,2024-10-08_13h52.06.418,cpt_test,2024.2.2,59.94423986917265,2024-10-08 13h52.17.582122 -0600,
125,G,0,None,124,124,0,None,1,,,0,124,124,124,398.11631310000666,,,,,,,,,,398.10248539999884,398.11631310000666,398.11631310000666,398.31142179999733,398.3275966999936,400.11501500000304,None,1,,,,000006,001,2024-10-08_13h52.06.418,cpt_test,2024.2.2,59.94423986917265,2024-10-08 13h52.17.582122 -0600,
126,A,0,None,125,125,0,None,1,,,0,125,125,125,400.12841760000447,,,,,,,,,,400.11531330000435,400.12841760000447,400.12841760000447,400.3097845000011,400.342639399998,402.1137566999969,None,1,,,,000006,001,2024-10-08_13h52.06.418,cpt_test,2024.2.2,59.94423986917265,2024-10-08 13h52.17.582122 -0600,
127,X,1,x,126,126,0,x,1,0.41275609999138396,0.14490800000203308,0,126,126,126,402.12637100000575,,,,,,,,,,402.1140693000052,402.12637100000575,402.12637100000575,402.30866169999354,402.34271009999793,404.1123530000041,x,1,0.41275609999138396,0.14490800000203308,,000006,001,2024-10-08_13h52.06.418,cpt_test,2024.2.2,59.94423986917265,2024-10-08 13h52.17.582122 -0600,
128,N,0,None,127,127,0,None,1,,,0,127,127,127,404.12509000000136,,,,,,,,,,404.11268859999836,404.12509000000136,404.12509000000136,404.3063259000046,404.339407499996,406.11048049999226,None,1,,,,000006,001,2024-10-08_13h52.06.418,cpt_test,2024.2.2,59.94423986917265,2024-10-08 13h52.17.582122 -0600,
129,Y,0,None,128,128,0,None,1,,,0,128,128,128,406.1237247999961,,,,,,,,,,406.110780300005,406.1237247999961,406.1237247999961,406.30489650000527,406.3394476999965,408.10872180000297,None,1,,,,000006,001,2024-10-08_13h52.06.418,cpt_test,2024.2.2,59.94423986917265,2024-10-08 13h52.17.582122 -0600,
130,W,0,None,129,129,0,None,1,,,0,129,129,129,408.1217154000042,,,,,,,,,,408.1090236000018,408.1217154000042,408.1217154000042,408.3033138000028,408.33604619999824,410.1071566000028,None,1,,,,000006,001,2024-10-08_13h52.06.418,cpt_test,2024.2.2,59.94423986917265,2024-10-08 13h52.17.582122 -0600,
131,L,0,None,130,130,0,None,1,,,0,130,130,130,410.120007599995,,,,,,,,,,410.10747360000096,410.120007599995,410.120007599995,410.3014082000009,410.33444609999424,412.1053128000058,None,1,,,,000006,001,2024-10-08_13h52.06.418,cpt_test,2024.2.2,59.94423986917265,2024-10-08 13h52.17.582122 -0600,
132,F,0,None,131,131,0,None,1,,,0,131,131,131,412.1184191000066,,,,,,,,,,412.1056225000066,412.1184191000066,412.1184191000066,412.3000045999943,412.33275099999446,414.1038350000017,None,1,,,,000006,001,2024-10-08_13h52.06.418,cpt_test,2024.2.2,59.94423986917265,2024-10-08 13h52.17.582122 -0600,
133,E,0,None,132,132,0,None,1,,,0,132,132,132,414.1170983000047,,,,,,,,,,414.1041400999966,414.1170983000047,414.1170983000047,414.3148013000027,414.3311989000067,416.1026641000062,None,1,,,,000006,001,2024-10-08_13h52.06.418,cpt_test,2024.2.2,59.94423986917265,2024-10-08 13h52.17.582122 -0600,
134,L,0,None,133,133,0,None,1,,,0,133,133,133,416.11575680000533,,,,,,,,,,416.10298429999966,416.11575680000533,416.11575680000533,416.31305939999584,416.32970800000476,418.10194259999844,None,1,,,,000006,001,2024-10-08_13h52.06.418,cpt_test,2024.2.2,59.94423986917265,2024-10-08 13h52.17.582122 -0600,
135,K,0,None,134,134,0,None,1,,,0,134,134,134,418.1167540000024,,,,,,,,,,418.1023172999994,418.1167540000024,418.1167540000024,418.3114485999977,418.3279107999988,420.1159806999931,None,1,,,,000006,001,2024-10-08_13h52.06.418,cpt_test,2024.2.2,59.94423986917265,2024-10-08 13h52.17.582122 -0600,
136,Q,0,None,135,135,0,None,1,,,0,135,135,135,420.12931489999755,,,,,,,,,,420.1163011000026,420.12931489999755,420.12931489999755,420.31000420000055,420.3427907000005,422.1141162999993,None,1,,,,000006,001,2024-10-08_13h52.06.418,cpt_test,2024.2.2,59.94423986917265,2024-10-08 13h52.17.582122 -0600,
137,X,1,x,136,136,0,x,1,0.3858176999929128,0.1452967999939574,0,136,136,136,422.1271876999963,,,,,,,,,,422.11441860000195,422.1271876999963,422.1271876999963,422.3082923000038,422.34118289999606,424.1122133000026,x,1,0.3858176999929128,0.1452967999939574,,000006,001,2024-10-08_13h52.06.418,cpt_test,2024.2.2,59.94423986917265,2024-10-08 13h52.17.582122 -0600,
138,J,0,None,137,137,0,None,1,,,0,137,137,137,424.1253204999957,,,,,,,,,,424.11252359999344,424.1253204999957,424.1253204999957,424.3064119000046,424.3396275999985,426.11082539999916,None,1,,,,000006,001,2024-10-08_13h52.06.418,cpt_test,2024.2.2,59.94423986917265,2024-10-08 13h52.17.582122 -0600,
139,X,1,x,138,138,0,x,1,0.5889876000001095,0.1497832000022754,0,138,138,138,426.12397610000335,,,,,,,,,,426.1111365999968,426.12397610000335,426.12397610000335,426.30498810000427,426.3379435999959,428.109369400001,x,1,0.5889876000001095,0.1497832000022754,,000006,001,2024-10-08_13h52.06.418,cpt_test,2024.2.2,59.94423986917265,2024-10-08 13h52.17.582122 -0600,
140,E,0,None,139,139,0,None,1,,,0,139,139,139,428.1228761999955,,,,,,,,,,428.10970879999513,428.1228761999955,428.1228761999955,428.303468099999,428.3363007000007,430.1060506999929,None,1,,,,000006,001,2024-10-08_13h52.06.418,cpt_test,2024.2.2,59.94423986917265,2024-10-08 13h52.17.582122 -0600,
141,T,0,None,140,140,0,None,1,,,0,140,140,140,430.11839540000074,,,,,,,,,,430.10628589999396,430.11839540000074,430.11839540000074,430.3016778000019,430.31810750000295,432.105679100001,None,1,,,,000006,001,2024-10-08_13h52.06.418,cpt_test,2024.2.2,59.94423986917265,2024-10-08 13h52.17.582122 -0600,
142,X,1,x,141,141,0,x,1,0.3817054000101052,0.13058889999228995,0,141,141,141,432.11894149999716,,,,,,,,,,432.10599250000087,432.11894149999716,432.11894149999716,432.3001296000002,432.33304650000355,434.1047511999932,x,1,0.3817054000101052,0.13058889999228995,,000006,001,2024-10-08_13h52.06.418,cpt_test,2024.2.2,59.94423986917265,2024-10-08 13h52.17.582122 -0600,
143,Q,0,None,142,142,0,None,1,,,0,142,142,142,434.11788499999966,,,,,,,,,,434.1050636,434.11788499999966,434.11788499999966,434.3150405000051,434.3311939999985,436.1026911999943,None,1,,,,000006,001,2024-10-08_13h52.06.418,cpt_test,2024.2.2,59.94423986917265,2024-10-08 13h52.17.582122 -0600,
144,V,0,None,143,143,0,None,1,,,0,143,143,143,436.11581509999814,,,,,,,,,,436.10300180000195,436.11581509999814,436.11581509999814,436.3134582000057,436.3296522000019,438.1070957000047,None,1,,,,000006,001,2024-10-08_13h52.06.418,cpt_test,2024.2.2,59.94423986917265,2024-10-08 13h52.17.582122 -0600,
145,Y,0,None,144,144,0,None,1,,,0,144,144,144,438.1229181999952,,,,,,,,,,438.1076592000027,438.1229181999952,438.1229181999952,438.311749600005,438.32812180000474,440.10221060000185,None,1,,,,000006,001,2024-10-08_13h52.06.418,cpt_test,2024.2.2,59.94423986917265,2024-10-08 13h52.17.582122 -0600,
146,O,0,None,145,145,0,None,1,,,0,145,145,145,440.1157447000005,,,,,,,,,,440.1025490000029,440.1157447000005,440.1157447000005,440.31026980000024,440.3263806000032,442.1142852000048,None,1,,,,000006,001,2024-10-08_13h52.06.418,cpt_test,2024.2.2,59.94423986917265,2024-10-08 13h52.17.582122 -0600,
147,T,0,None,146,146,0,None,1,,,0,146,146,146,442.12772340000083,,,,,,,,,,442.11458680000214,442.12772340000083,442.12772340000083,442.30855200000224,442.3415413000039,444.1129956999939,None,1,,,,000006,001,2024-10-08_13h52.06.418,cpt_test,2024.2.2,59.94423986917265,2024-10-08 13h52.17.582122 -0600,
148,X,1,x,147,147,0,x,1,0.47101259999908507,0.14442520000739023,0,147,147,147,444.1258672999975,,,,,,,,,,444.1133117999998,444.1258672999975,444.1258672999975,444.3068879000057,444.3397599000018,446.11089229999925,x,1,0.47101259999908507,0.14442520000739023,,000006,001,2024-10-08_13h52.06.418,cpt_test,2024.2.2,59.94423986917265,2024-10-08 13h52.17.582122 -0600,
149,T,0,None,148,148,0,None,1,,,0,148,148,148,446.12365090000094,,,,,,,,,,446.11121780000394,446.12365090000094,446.12365090000094,446.3050873000029,446.33812329999637,448.10900919999403,None,1,,,,000006,001,2024-10-08_13h52.06.418,cpt_test,2024.2.2,59.94423986917265,2024-10-08 13h52.17.582122 -0600,
150,S,0,None,149,149,0,None,1,,,0,149,149,149,448.1216979000019,,,,,,,,,,448.1093203000055,448.1216979000019,448.1216979000019,448.303602400003,448.3366492000059,450.1074643000029,None,1,,,,000006,001,2024-10-08_13h52.06.418,cpt_test,2024.2.2,59.94423986917265,2024-10-08 13h52.17.582122 -0600,
151,L,0,None,150,150,0,None,1,,,0,150,150,150,450.12004460000026,,,,,,,,,,450.1077615999966,450.12004460000026,450.12004460000026,450.30190259999654,450.33483009999327,452.1061056000035,None,1,,,,000006,001,2024-10-08_13h52.06.418,cpt_test,2024.2.2,59.94423986917265,2024-10-08 13h52.17.582122 -0600,
152,V,0,None,151,151,0,None,1,,,0,151,151,151,452.1194805999985,,,,,,,,,,452.1064119999937,452.1194805999985,452.1194805999985,452.3004473000037,452.333169599995,454.1038189999963,None,1,,,,000006,001,2024-10-08_13h52.06.418,cpt_test,2024.2.2,59.94423986917265,2024-10-08 13h52.17.582122 -0600,
153,C,0,None,152,152,0,None,1,,,0,152,152,152,454.11712130000524,,,,,,,,,,454.1041200000036,454.11712130000524,454.11712130000524,454.3151501999964,454.3314834000048,456.1027933000005,None,1,,,,000006,001,2024-10-08_13h52.06.418,cpt_test,2024.2.2,59.94423986917265,2024-10-08 13h52.17.582122 -0600,
154,U,0,None,153,153,0,None,1,,,0,153,153,153,456.11646600000677,,,,,,,,,,456.1031023999967,456.11646600000677,456.11646600000677,456.3135384000052,456.3300244999991,458.1190457000048,None,1,,,,000006,001,2024-10-08_13h52.06.418,cpt_test,2024.2.2,59.94423986917265,2024-10-08 13h52.17.582122 -0600,
155,X,1,x,154,154,0,x,1,0.42492309999943245,0.15460300000268035,0,154,154,154,458.134049100001,,,,,,,,,,458.11942990000534,458.134049100001,458.134049100001,458.3121734000015,458.3448723000038,460.1161632000003,x,1,0.42492309999943245,0.15460300000268035,,000006,001,2024-10-08_13h52.06.418,cpt_test,2024.2.2,59.94423986917265,2024-10-08 13h52.17.582122 -0600,
156,X,1,x,155,155,0,x,1,0.3755454999918584,0.13570539999636821,0,155,155,155,460.1270281000034,,,,,,,,,,460.1164940000017,460.1270281000034,460.1270281000034,460.31021599999804,460.32662249999703,462.11484579999524,x,1,0.3755454999918584,0.13570539999636821,,000006,001,2024-10-08_13h52.06.418,cpt_test,2024.2.2,59.94423986917265,2024-10-08 13h52.17.582122 -0600,
157,L,0,None,156,156,0,None,1,,,0,156,156,156,462.1280073999951,,,,,,,,,,462.11520980000205,462.1280073999951,462.1280073999951,462.30874700000277,462.34178760000214,464.1124630999984,None,1,,,,000006,001,2024-10-08_13h52.06.418,cpt_test,2024.2.2,59.94423986917265,2024-10-08 13h52.17.582122 -0600,
158,W,0,None,157,157,0,None,1,,,0,157,157,157,464.12565970000287,,,,,,,,,,464.1127609999967,464.12565970000287,464.12565970000287,464.3070490999962,464.3400810000021,466.11093110000365,None,1,,,,000006,001,2024-10-08_13h52.06.418,cpt_test,2024.2.2,59.94423986917265,2024-10-08 13h52.17.582122 -0600,
159,A,0,None,158,158,0,None,1,,,0,158,158,158,466.124020400006,,,,,,,,,,466.11122789999354,466.124020400006,466.124020400006,466.3052860000025,466.3383029999968,468.10953719999816,None,1,,,,000006,001,2024-10-08_13h52.06.418,cpt_test,2024.2.2,59.94423986917265,2024-10-08 13h52.17.582122 -0600,
160,X,1,x,159,159,0,x,1,0.38223969998944085,0.14402930000505876,0,159,159,159,468.1226086999959,,,,,,,,,,468.1098326999927,468.1226086999959,468.1226086999959,468.30380150000565,468.3367816999962,470.1074835000036,x,1,0.38223969998944085,0.14402930000505876,,000006,001,2024-10-08_13h52.06.418,cpt_test,2024.2.2,59.94423986917265,2024-10-08 13h52.17.582122 -0600,
161,A,0,None,160,160,0,None,1,,,0,160,160,160,470.1208408999955,,,,,,,,,,470.10780919999524,470.1208408999955,470.1208408999955,470.30224380000436,470.3349545999954,472.10568839999905,None,1,,,,000006,001,2024-10-08_13h52.06.418,cpt_test,2024.2.2,59.94423986917265,2024-10-08 13h52.17.582122 -0600,
162,M,0,None,161,161,0,None,1,,,0,161,161,161,472.11877410000307,,,,,,,,,,472.1059886000003,472.11877410000307,472.11877410000307,472.3007058999938,472.33335099999385,474.1042490999971,None,1,,,,000006,001,2024-10-08_13h52.06.418,cpt_test,2024.2.2,59.94423986917265,2024-10-08 13h52.17.582122 -0600,
163,X,1,x,162,162,0,x,1,0.34299940000346396,0.14385910000419244,0,162,162,162,474.1172731999977,,,,,,,,,,474.1045473999984,474.1172731999977,474.1172731999977,474.3155965000042,474.33164920000127,476.1030880000035,x,1,0.34299940000346396,0.14385910000419244,,000006,001,2024-10-08_13h52.06.418,cpt_test,2024.2.2,59.94423986917265,2024-10-08 13h52.17.582122 -0600,
164,X,1,x,163,163,0,x,1,0.33295840000209864,0.15459229999396484,0,163,163,163,476.1139930999925,,,,,,,,,,476.1034170000057,476.1139930999925,476.1139930999925,476.31355500000063,476.31355500000063,478.10087910000584,x,1,0.33295840000209864,0.15459229999396484,,000006,001,2024-10-08_13h52.06.418,cpt_test,2024.2.2,59.94423986917265,2024-10-08 13h52.17.582122 -0600,
165,K,0,None,164,164,0,None,1,,,0,164,164,164,478.11394270000164,,,,,,,,,,478.10120249999454,478.11394270000164,478.11394270000164,478.3121550999931,478.3285612000036,480.1163658000005,None,1,,,,000006,001,2024-10-08_13h52.06.418,cpt_test,2024.2.2,59.94423986917265,2024-10-08 13h52.17.582122 -0600,
166,X,1,x,165,165,0,x,1,0.43691979999130126,0.16300740001315717,0,165,165,165,480.1295053999929,,,,,,,,,,480.116703599997,480.1295053999929,480.1295053999929,480.3103631999984,480.34350560000166,482.1141772999981,x,1,0.43691979999130126,0.16300740001315717,,000006,001,2024-10-08_13h52.06.418,cpt_test,2024.2.2,59.94423986917265,2024-10-08 13h52.17.582122 -0600,
167,M,0,None,166,166,0,None,1,,,0,166,166,166,482.1273629000061,,,,,,,,,,482.1144945999986,482.1273629000061,482.1273629000061,482.3088388000033,482.3418711999984,484.1128069999977,None,1,,,,000006,001,2024-10-08_13h52.06.418,cpt_test,2024.2.2,59.94423986917265,2024-10-08 13h52.17.582122 -0600,
168,X,1,x,167,167,0,x,1,0.2376524999999674,0.15059689999907278,0,167,167,167,484.1265551999968,,,,,,,,,,484.1131327000039,484.1265551999968,484.1265551999968,484.307126300002,484.3400632999983,486.11140850000083,x,1,0.2376524999999674,0.15059689999907278,,000006,001,2024-10-08_13h52.06.418,cpt_test,2024.2.2,59.94423986917265,2024-10-08 13h52.17.582122 -0600,
169,A,0,None,168,168,0,None,1,,,0,168,168,168,486.1244966999948,,,,,,,,,,486.1117322999926,486.1244966999948,486.1244966999948,486.3054511999944,486.33857310000167,488.11111019999953,None,1,,,,000006,001,2024-10-08_13h52.06.418,cpt_test,2024.2.2,59.94423986917265,2024-10-08 13h52.17.582122 -0600,
170,X,1,x,169,169,0,x,1,0.34205620001011994,0.12586659999215044,0,169,169,169,488.12575740000466,,,,,,,,,,488.1114904999995,488.12575740000466,488.12575740000466,488.31292199999734,488.32950469999923,490.1090064000018,x,1,0.34205620001011994,0.12586659999215044,,000006,001,2024-10-08_13h52.06.418,cpt_test,2024.2.2,59.94423986917265,2024-10-08 13h52.17.582122 -0600,
171,L,0,None,170,170,0,None,1,,,0,170,170,170,490.1230719000014,,,,,,,,,,490.1093989999936,490.1230719000014,490.1230719000014,490.30215730000054,490.3353356000007,492.10624090000056,None,1,,,,000006,001,2024-10-08_13h52.06.418,cpt_test,2024.2.2,59.94423986917265,2024-10-08 13h52.17.582122 -0600,
172,E,0,None,171,171,0,None,1,,,0,171,171,171,492.1189541000058,,,,,,,,,,492.10654589999467,492.1189541000058,492.1189541000058,492.30056550000154,492.3336685999966,494.10473209999327,None,1,,,,000006,001,2024-10-08_13h52.06.418,cpt_test,2024.2.2,59.94423986917265,2024-10-08 13h52.17.582122 -0600,
173,T,0,None,172,172,0,None,1,,,0,172,172,172,494.1177987999981,,,,,,,,,,494.1050574999972,494.1177987999981,494.1177987999981,494.31553940000595,494.3319768999936,496.10291240000515,None,1,,,,000006,001,2024-10-08_13h52.06.418,cpt_test,2024.2.2,59.94423986917265,2024-10-08 13h52.17.582122 -0600,
174,F,0,None,173,173,0,None,1,,,0,173,173,173,496.1160549000051,,,,,,,,,,496.10322269999597,496.1160549000051,496.1160549000051,496.3141869999963,496.33014900000126,498.1014004000026,None,1,,,,000006,001,2024-10-08_13h52.06.418,cpt_test,2024.2.2,59.94423986917265,2024-10-08 13h52.17.582122 -0600,
175,M,0,None,174,174,0,None,1,,,0,174,174,174,498.11457879999944,,,,,,,,,,498.10172140000213,498.11457879999944,498.11457879999944,498.31248439999763,498.32922460000555,500.11597129999427,None,1,,,,000006,001,2024-10-08_13h52.06.418,cpt_test,2024.2.2,59.94423986917265,2024-10-08 13h52.17.582122 -0600,
176,Q,0,None,175,175,0,None,1,,,0,175,175,175,500.1289079999988,,,,,,,,,,500.11627240000234,500.1289079999988,500.1289079999988,500.3107436999999,500.3456986999954,502.1159747000056,None,1,,,,000006,001,2024-10-08_13h52.06.418,cpt_test,2024.2.2,59.94423986917265,2024-10-08 13h52.17.582122 -0600,
177,M,0,None,176,176,0,None,1,,,0,176,176,176,502.13081869999587,,,,,,,,,,502.1163732999994,502.13081869999587,502.13081869999587,502.3089725000027,502.34388719999697,504.11306770000374,None,1,,,,000006,001,2024-10-08_13h52.06.418,cpt_test,2024.2.2,59.94423986917265,2024-10-08 13h52.17.582122 -0600,
178,X,1,x,177,177,0,x,1,0.3874645000032615,0.1443754999927478,0,177,177,177,504.12616909999633,,,,,,,,,,504.11337350000395,504.12616909999633,504.12616909999633,504.30746409999847,504.3404833999957,506.1110822000046,x,1,0.3874645000032615,0.1443754999927478,,000006,001,2024-10-08_13h52.06.418,cpt_test,2024.2.2,59.94423986917265,2024-10-08 13h52.17.582122 -0600,
179,V,0,None,178,178,0,None,1,,,0,178,178,178,506.1241878000001,,,,,,,,,,506.11139930000354,506.1241878000001,506.1241878000001,506.3056523999985,506.3389415999991,508.1097999000049,None,1,,,,000006,001,2024-10-08_13h52.06.418,cpt_test,2024.2.2,59.94423986917265,2024-10-08 13h52.17.582122 -0600,
180,M,0,None,179,179,0,None,1,,,0,179,179,179,508.12296120000246,,,,,,,,,,508.11010140000144,508.12296120000246,508.12296120000246,508.3042109999951,508.33713759999955,510.10790659999475,None,1,,,,000006,001,2024-10-08_13h52.06.418,cpt_test,2024.2.2,59.94423986917265,2024-10-08 13h52.17.582122 -0600,
181,P,0,None,180,180,0,None,1,,,0,180,180,180,510.12184100000013,,,,,,,,,,510.10820469999453,510.12184100000013,510.12184100000013,510.3025450999994,510.335416300004,512.1064931000001,None,1,,,,000006,001,2024-10-08_13h52.06.418,cpt_test,2024.2.2,59.94423986917265,2024-10-08 13h52.17.582122 -0600,
182,K,0,None,181,181,0,None,1,,,0,181,181,181,512.119423600001,,,,,,,,,,512.1067903999938,512.119423600001,512.119423600001,512.3007077999937,512.3336880999996,514.1050276000024,None,1,,,,000006,001,2024-10-08_13h52.06.418,cpt_test,2024.2.2,59.94423986917265,2024-10-08 13h52.17.582122 -0600,
183,V,0,None,182,182,0,None,1,,,0,182,182,182,514.1187362000055,,,,,,,,,,514.1053366999986,514.1187362000055,514.1187362000055,514.3159370999929,514.3320759000053,516.1033349999925,None,1,,,,000006,001,2024-10-08_13h52.06.418,cpt_test,2024.2.2,59.94423986917265,2024-10-08 13h52.17.582122 -0600,
184,G,0,None,183,183,0,None,1,,,0,183,183,183,516.1166137999971,,,,,,,,,,516.1036441000033,516.1166137999971,516.1166137999971,516.3141619999951,516.3304207000037,518.1020351000043,None,1,,,,000006,001,2024-10-08_13h52.06.418,cpt_test,2024.2.2,59.94423986917265,2024-10-08 13h52.17.582122 -0600,
185,L,0,None,184,184,0,None,1,,,0,184,184,184,518.1150330999953,,,,,,,,,,518.1023552999977,518.1150330999953,518.1150330999953,518.3124977999978,518.3287840999983,520.1019322000066,None,1,,,,000006,001,2024-10-08_13h52.06.418,cpt_test,2024.2.2,59.94423986917265,2024-10-08 13h52.17.582122 -0600,
186,Q,0,None,185,185,0,None,1,,,0,185,185,185,520.113583600003,,,,,,,,,,520.1022538999969,520.113583600003,520.113583600003,520.3109693000006,520.327120300004,522.1159495000029,None,1,,,,000006,001,2024-10-08_13h52.06.418,cpt_test,2024.2.2,59.94423986917265,2024-10-08 13h52.17.582122 -0600,
187,N,0,None,186,186,0,None,1,,,0,186,186,186,522.1306862000056,,,,,,,,,,522.1163431000023,522.1306862000056,522.1306862000056,522.3091203999938,522.342097899993,524.1132439000066,None,1,,,,000006,001,2024-10-08_13h52.06.418,cpt_test,2024.2.2,59.94423986917265,2024-10-08 13h52.17.582122 -0600,
188,K,0,None,187,187,0,None,1,,,0,187,187,187,524.1263080999925,,,,,,,,,,524.1135645000031,524.1263080999925,524.1263080999925,524.3076932999975,524.3404466999928,526.1116897000029,None,1,,,,000006,001,2024-10-08_13h52.06.418,cpt_test,2024.2.2,59.94423986917265,2024-10-08 13h52.17.582122 -0600,
189,C,0,None,188,188,0,None,1,,,0,188,188,188,526.1248866999958,,,,,,,,,,526.1120183000021,526.1248866999958,526.1248866999958,526.3060295000032,526.3390167000034,528.1101754999981,None,1,,,,000006,001,2024-10-08_13h52.06.418,cpt_test,2024.2.2,59.94423986917265,2024-10-08 13h52.17.582122 -0600,
190,Z,0,None,189,189,0,None,1,,,0,189,189,189,528.1234203000058,,,,,,,,,,528.1104874000011,528.1234203000058,528.1234203000058,528.3043498000043,528.3373887000052,530.1084509000066,None,1,,,,000006,001,2024-10-08_13h52.06.418,cpt_test,2024.2.2,59.94423986917265,2024-10-08 13h52.17.582122 -0600,
191,I,0,None,190,190,0,None,1,,,0,190,190,190,530.121572899996,,,,,,,,,,530.1087574999983,530.121572899996,530.121572899996,530.3024201999942,530.3356801000045,532.1078507000057,None,1,,,,000006,001,2024-10-08_13h52.06.418,cpt_test,2024.2.2,59.94423986917265,2024-10-08 13h52.17.582122 -0600,
192,J,0,None,191,191,0,None,1,,,0,191,191,191,532.1218369999988,,,,,,,,,,532.108226700002,532.1218369999988,532.1218369999988,532.3008981000021,532.3345674000011,534.1048579000053,None,1,,,,000006,001,2024-10-08_13h52.06.418,cpt_test,2024.2.2,59.94423986917265,2024-10-08 13h52.17.582122 -0600,
193,X,1,x,192,192,0,x,1,0.3709416999918176,0.15013480000197887,0,192,192,192,534.1176318999933,,,,,,,,,,534.105154799996,534.1176318999933,534.1176318999933,534.3161080999998,534.3322270000062,536.1033957000036,x,1,0.3709416999918176,0.15013480000197887,,000006,001,2024-10-08_13h52.06.418,cpt_test,2024.2.2,59.94423986917265,2024-10-08 13h52.17.582122 -0600,
194,E,0,None,193,193,0,None,1,,,0,193,193,193,536.116711900002,,,,,,,,,,536.1037235999975,536.116711900002,536.116711900002,536.3142821999936,536.3307751999964,538.1016588000057,None,1,,,,000006,001,2024-10-08_13h52.06.418,cpt_test,2024.2.2,59.94423986917265,2024-10-08 13h52.17.582122 -0600,
195,X,1,x,194,194,0,x,1,0.3410384000017075,0.17693779998808168,0,194,194,194,538.1148052000062,,,,,,,,,,538.1019700000033,538.1148052000062,538.1148052000062,538.3127745999955,538.3292006999982,540.1168461000052,x,1,0.3410384000017075,0.17693779998808168,,000006,001,2024-10-08_13h52.06.418,cpt_test,2024.2.2,59.94423986917265,2024-10-08 13h52.17.582122 -0600,
196,X,1,x,195,195,0,x,1,0.32101099999272265,0.1361687000025995,0,195,195,195,540.1277620000037,,,,,,,,,,540.117190200006,540.1277620000037,540.1277620000037,540.3109629999963,540.3275589999976,542.115015000003,x,1,0.32101099999272265,0.1361687000025995,,000006,001,2024-10-08_13h52.06.418,cpt_test,2024.2.2,59.94423986917265,2024-10-08 13h52.17.582122 -0600,
197,O,0,None,196,196,0,None,1,,,0,196,196,196,542.1286494999949,,,,,,,,,,542.1153384999925,542.1286494999949,542.1286494999949,542.3094148999953,542.3423909999983,544.1144671999937,None,1,,,,000006,001,2024-10-08_13h52.06.418,cpt_test,2024.2.2,59.94423986917265,2024-10-08 13h52.17.582122 -0600,
198,X,1,x,197,197,0,x,1,0.30483699998876546,0.14112150001164991,0,197,197,197,544.1290657999925,,,,,,,,,,544.1148608999938,544.1290657999925,544.1290657999925,544.3169486999977,544.333649799999,546.1119792999962,x,1,0.30483699998876546,0.14112150001164991,,000006,001,2024-10-08_13h52.06.418,cpt_test,2024.2.2,59.94423986917265,2024-10-08 13h52.17.582122 -0600,
199,T,0,None,198,198,0,None,1,,,0,198,198,198,546.125578399995,,,,,,,,,,546.1122983999958,546.125578399995,546.125578399995,546.3064895999996,546.3400738000055,548.1100508999953,None,1,,,,000006,001,2024-10-08_13h52.06.418,cpt_test,2024.2.2,59.94423986917265,2024-10-08 13h52.17.582122 -0600,
200,X,1,x,199,199,0,x,1,0.3303447999933269,0.1551032999996096,0,199,199,199,548.1234288999985,,,,,,,,,,548.1103690000018,548.1234288999985,548.1234288999985,548.3046249000035,548.3375197999994,550.108785999997,x,1,0.3303447999933269,0.1551032999996096,,000006,001,2024-10-08_13h52.06.418,cpt_test,2024.2.2,59.94423986917265,2024-10-08 13h52.17.582122 -0600,
201,L,0,None,200,200,0,None,1,,,0,200,200,200,550.1219784999994,,,,,,,,,,550.1091408999928,550.1219784999994,550.1219784999994,550.3029126000038,550.3358084999927,552.1069936999993,None,1,,,,000006,001,2024-10-08_13h52.06.418,cpt_test,2024.2.2,59.94423986917265,2024-10-08 13h52.17.582122 -0600,
