Number,letra,target,correctas,thisN,thisTrialN,thisRepN,respuesta.keys,respuesta.corr,respuesta.rt,respuesta.duration,trials.thisRepN,trials.thisTrialN,trials.thisN,trials.thisIndex,thisRow.t,notes,Ojos_abiertos.started,Abiertos.started,Ojos_abiertos.stopped,Ojos_cerrados.started,Cerrados.started,alert.started,Cerrados.stopped,alert.stopped,Ojos_cerrados.stopped,Test.started,prueba.started,respuesta.started,text.started,prueba.stopped,Test.stopped,trials.respuesta.keys,trials.respuesta.corr,trials.respuesta.rt,trials.respuesta.duration,text.stopped,participant,session,date,expName,psychopyVersion,frameRate,expStart,
,,,,,,,,,,,,,,,,,0.012096699996618554,0.020951900020008907,90.01315630000317,,,,,,,,,,,,,,,,,,000020,001,2024-10-10_14h36.52.945,cpt_test,2024.2.2,60.270881445849504,2024-10-10 14h37.12.966246 -0600,
,,,,,,,,,,,,,,,,,,,,90.01549630000954,90.02684940001927,150.00626966669032,150.03965459999745,150.31143210001756,150.1157158999995,,,,,,,,,,,,000020,001,2024-10-10_14h36.52.945,cpt_test,2024.2.2,60.270881445849504,2024-10-10 14h37.12.966246 -0600,
1,A,0,None,0,0,0,None,1,,,0,0,0,0,150.31143210001756,,,,,,,,,,,150.14936380001018,150.31143210001756,150.31143210001756,150.32802300000913,150.5098350000044,152.1118518000003,None,1,,,,000020,001,2024-10-10_14h36.52.945,cpt_test,2024.2.2,60.270881445849504,2024-10-10 14h37.12.966246 -0600,
2,R,0,None,1,1,0,None,1,,,0,1,1,1,152.14566900001955,,,,,,,,,,,152.1122531000001,152.14566900001955,152.14566900001955,152.30652610000107,152.35430659999838,154.10868710000068,None,1,,,,000020,001,2024-10-10_14h36.52.945,cpt_test,2024.2.2,60.270881445849504,2024-10-10 14h37.12.966246 -0600,
3,L,0,None,2,2,0,None,1,,,0,2,2,2,154.1381764000107,,,,,,,,,,,154.10901120002382,154.1381764000107,154.1381764000107,154.30311750000692,154.35283010001876,156.1074679000012,None,1,,,,000020,001,2024-10-10_14h36.52.945,cpt_test,2024.2.2,60.270881445849504,2024-10-10 14h37.12.966246 -0600,
4,X,1,x,3,3,0,x,1,0.8390978000243194,0.12702889999491163,0,3,3,3,156.1357016999973,,,,,,,,,,,156.10778350001783,156.1357016999973,156.1357016999973,156.30140110000502,156.35097530001076,158.10549650000758,x,1,0.8390978000243194,0.12702889999491163,,000020,001,2024-10-10_14h36.52.945,cpt_test,2024.2.2,60.270881445849504,2024-10-10 14h37.12.966246 -0600,
5,O,0,None,4,4,0,None,1,,,0,4,4,4,158.13378319999902,,,,,,,,,,,158.10584480001125,158.13378319999902,158.13378319999902,158.29987630000687,158.33266960000037,160.10386870001093,None,1,,,,000020,001,2024-10-10_14h36.52.945,cpt_test,2024.2.2,60.270881445849504,2024-10-10 14h37.12.966246 -0600,
6,G,0,None,5,5,0,None,1,,,0,5,5,5,160.1318167000136,,,,,,,,,,,160.10424169999897,160.1318167000136,160.1318167000136,160.31467520000297,160.33108720000018,162.10215839999728,None,1,,,,000020,001,2024-10-10_14h36.52.945,cpt_test,2024.2.2,60.270881445849504,2024-10-10 14h37.12.966246 -0600,
7,P,0,None,6,6,0,None,1,,,0,6,6,6,162.1301678000018,,,,,,,,,,,162.10248610001872,162.1301678000018,162.1301678000018,162.313235300011,162.32943169999635,164.1170495999977,None,1,,,,000020,001,2024-10-10_14h36.52.945,cpt_test,2024.2.2,60.270881445849504,2024-10-10 14h37.12.966246 -0600,
8,X,1,x,7,7,0,x,1,0.7290956000215374,0.1434364999877289,0,7,7,7,164.12975240001106,,,,,,,,,,,164.1173800000106,164.12975240001106,164.12975240001106,164.31146670001908,164.3443598000158,166.11533070000587,x,1,0.7290956000215374,0.1434364999877289,,000020,001,2024-10-10_14h36.52.945,cpt_test,2024.2.2,60.270881445849504,2024-10-10 14h37.12.966246 -0600,
9,X,1,x,8,8,0,x,1,0.7350347000174224,0.17163779999827966,0,8,8,8,166.1268745000125,,,,,,,,,,,166.1156802000187,166.1268745000125,166.1268745000125,166.30989730000147,166.3261393000139,168.11488830001326,x,1,0.7350347000174224,0.17163779999827966,,000020,001,2024-10-10_14h36.52.945,cpt_test,2024.2.2,60.270881445849504,2024-10-10 14h37.12.966246 -0600,
10,Z,0,None,9,9,0,None,1,,,0,9,9,9,168.14799029999995,,,,,,,,,,,168.11531000002287,168.14799029999995,168.14799029999995,168.29975730000297,168.35883500002092,170.11226640001405,None,1,,,170.10649080001167,000020,001,2024-10-10_14h36.52.945,cpt_test,2024.2.2,60.270881445849504,2024-10-10 14h37.12.966246 -0600,
11,I,0,None,10,10,0,None,1,,,0,10,10,10,170.14151080002193,,,,,,,,,,,170.11262570001418,170.14151080002193,170.14151080002193,170.30629200002295,170.3560817000107,172.11255479999818,None,1,,,,000020,001,2024-10-10_14h36.52.945,cpt_test,2024.2.2,60.270881445849504,2024-10-10 14h37.12.966246 -0600,
12,D,0,None,11,11,0,None,1,,,0,11,11,11,172.14960840001004,,,,,,,,,,,172.11297860002378,172.14960840001004,172.14960840001004,172.30493929999648,172.35456639999757,174.10880119999638,None,1,,,,000020,001,2024-10-10_14h36.52.945,cpt_test,2024.2.2,60.270881445849504,2024-10-10 14h37.12.966246 -0600,
13,X,1,x,12,12,0,x,1,0.3839213000028394,0.20948620000854135,0,12,12,12,174.12154459999874,,,,,,,,,,,174.10911830002442,174.12154459999874,174.12154459999874,174.30313430001843,174.33617029999732,176.10743990002084,x,1,0.3839213000028394,0.20948620000854135,,000020,001,2024-10-10_14h36.52.945,cpt_test,2024.2.2,60.270881445849504,2024-10-10 14h37.12.966246 -0600,
14,Y,0,None,13,13,0,None,1,,,0,13,13,13,176.13755310000852,,,,,,,,,,,176.10779050001292,176.13755310000852,176.13755310000852,176.30172000001767,176.35118720002356,178.1060043000034,None,1,,,,000020,001,2024-10-10_14h36.52.945,cpt_test,2024.2.2,60.270881445849504,2024-10-10 14h37.12.966246 -0600,
15,X,1,x,14,14,0,x,1,0.4823929000122007,0.21017089998349547,0,14,14,14,178.1186022000038,,,,,,,,,,,178.10636740000336,178.1186022000038,178.1186022000038,178.30009309999878,178.33280940001714,180.10431660001632,x,1,0.4823929000122007,0.21017089998349547,,000020,001,2024-10-10_14h36.52.945,cpt_test,2024.2.2,60.270881445849504,2024-10-10 14h37.12.966246 -0600,
16,X,1,x,15,15,0,x,1,0.3981035999895539,0.23712540001724847,0,15,15,15,180.11517970002024,,,,,,,,,,,180.10467950001475,180.11517970002024,180.11517970002024,180.3147882000194,180.3147882000194,182.10240810000687,x,1,0.3981035999895539,0.23712540001724847,,000020,001,2024-10-10_14h36.52.945,cpt_test,2024.2.2,60.270881445849504,2024-10-10 14h37.12.966246 -0600,
17,A,0,None,16,16,0,None,1,,,0,16,16,16,182.1151327000116,,,,,,,,,,,182.10273850001977,182.1151327000116,182.1151327000116,182.31334910000442,182.32974270000705,184.11700570001267,None,1,,,,000020,001,2024-10-10_14h36.52.945,cpt_test,2024.2.2,60.270881445849504,2024-10-10 14h37.12.966246 -0600,
18,J,0,None,17,17,0,None,1,,,0,17,17,17,184.13793749999604,,,,,,,,,,,184.1171981000225,184.13793749999604,184.13793749999604,184.31148880001274,184.34480449999683,186.10346760001266,None,1,,,,000020,001,2024-10-10_14h36.52.945,cpt_test,2024.2.2,60.270881445849504,2024-10-10 14h37.12.966246 -0600,
19,G,0,None,18,18,0,None,1,,,0,18,18,18,186.1180630000017,,,,,,,,,,,186.10390730001382,186.1180630000017,186.1180630000017,186.3087736000016,186.32594530002098,188.11433540002326,None,1,,,188.10833660000935,000020,001,2024-10-10_14h36.52.945,cpt_test,2024.2.2,60.270881445849504,2024-10-10 14h37.12.966246 -0600,
20,X,1,x,19,19,0,x,1,0.3995017999841366,0.2240927999955602,0,19,19,19,188.1270799000049,,,,,,,,,,,188.1146706000145,188.1270799000049,188.1270799000049,188.30840650000027,188.34133330002078,190.11240670000552,x,1,0.3995017999841366,0.2240927999955602,,000020,001,2024-10-10_14h36.52.945,cpt_test,2024.2.2,60.270881445849504,2024-10-10 14h37.12.966246 -0600,
21,T,0,None,20,20,0,None,1,,,0,20,20,20,190.14210470000398,,,,,,,,,,,190.11273930000607,190.14210470000398,190.14210470000398,190.30663560001994,190.35622030001832,192.1107103000104,None,1,,,,000020,001,2024-10-10_14h36.52.945,cpt_test,2024.2.2,60.270881445849504,2024-10-10 14h37.12.966246 -0600,
22,S,0,None,21,21,0,None,1,,,0,21,21,21,192.14229000001797,,,,,,,,,,,192.11105150001822,192.14229000001797,192.14229000001797,192.3049840000167,192.3546574000211,194.1090599000163,None,1,,,,000020,001,2024-10-10_14h36.52.945,cpt_test,2024.2.2,60.270881445849504,2024-10-10 14h37.12.966246 -0600,
23,X,1,x,22,22,0,x,1,0.3045793999917805,0.273254600004293,0,22,22,22,194.12189120001858,,,,,,,,,,,194.10938000000897,194.12189120001858,194.12189120001858,194.3035067000019,194.33629580002162,196.10763189999852,x,1,0.3045793999917805,0.273254600004293,,000020,001,2024-10-10_14h36.52.945,cpt_test,2024.2.2,60.270881445849504,2024-10-10 14h37.12.966246 -0600,
24,S,0,None,23,23,0,None,1,,,0,23,23,23,196.12080540001625,,,,,,,,,,,196.10798060000525,196.12080540001625,196.12080540001625,196.30189360000077,196.3346950999985,198.10613359999843,None,1,,,,000020,001,2024-10-10_14h36.52.945,cpt_test,2024.2.2,60.270881445849504,2024-10-10 14h37.12.966246 -0600,
25,G,0,None,24,24,0,None,1,,,0,24,24,24,198.11931310000364,,,,,,,,,,,198.10648720001336,198.11931310000364,198.11931310000364,198.3001510000031,198.3331887999957,200.10443999999552,None,1,,,,000020,001,2024-10-10_14h36.52.945,cpt_test,2024.2.2,60.270881445849504,2024-10-10 14h37.12.966246 -0600,
26,O,0,None,25,25,0,None,1,,,0,25,25,25,200.11724819999654,,,,,,,,,,,200.10476830002153,200.11724819999654,200.11724819999654,200.3151926000137,200.33136770001147,202.10279520001495,None,1,,,,000020,001,2024-10-10_14h36.52.945,cpt_test,2024.2.2,60.270881445849504,2024-10-10 14h37.12.966246 -0600,
27,P,0,None,26,26,0,None,1,,,0,26,26,26,202.11534190000384,,,,,,,,,,,202.1031120000116,202.11534190000384,202.11534190000384,202.31360490000225,202.3297756999964,204.10099550001905,None,1,,,,000020,001,2024-10-10_14h36.52.945,cpt_test,2024.2.2,60.270881445849504,2024-10-10 14h37.12.966246 -0600,
28,Z,0,None,27,27,0,None,1,,,0,27,27,27,204.11377970001195,,,,,,,,,,,204.10131520000868,204.11377970001195,204.11377970001195,204.31175120000262,204.33346190000884,206.1159728000057,None,1,,,,000020,001,2024-10-10_14h36.52.945,cpt_test,2024.2.2,60.270881445849504,2024-10-10 14h37.12.966246 -0600,
29,X,1,x,28,28,0,x,1,0.37341830000514165,0.2603233999980148,0,28,28,28,206.12938170001144,,,,,,,,,,,206.11631370001123,206.12938170001144,206.12938170001144,206.31011500000022,206.34333740000147,208.11451610000222,x,1,0.37341830000514165,0.2603233999980148,,000020,001,2024-10-10_14h36.52.945,cpt_test,2024.2.2,60.270881445849504,2024-10-10 14h37.12.966246 -0600,
30,I,0,None,29,29,0,None,1,,,0,29,29,29,208.12749900002382,,,,,,,,,,,208.11486680002417,208.12749900002382,208.12749900002382,208.30829660000745,208.34163430001354,210.1130316000199,None,1,,,,000020,001,2024-10-10_14h36.52.945,cpt_test,2024.2.2,60.270881445849504,2024-10-10 14h37.12.966246 -0600,
31,F,0,None,30,30,0,None,1,,,0,30,30,30,210.14046340002096,,,,,,,,,,,210.11337020000792,210.14046340002096,210.14046340002096,210.30698789999587,210.33990400002222,212.11075010002241,None,1,,,,000020,001,2024-10-10_14h36.52.945,cpt_test,2024.2.2,60.270881445849504,2024-10-10 14h37.12.966246 -0600,
32,M,0,None,31,31,0,None,1,,,0,31,31,31,212.14479780002148,,,,,,,,,,,212.11107310000807,212.14479780002148,212.14479780002148,212.30537539999932,212.35479340000893,214.10974559999886,None,1,,,,000020,001,2024-10-10_14h36.52.945,cpt_test,2024.2.2,60.270881445849504,2024-10-10 14h37.12.966246 -0600,
33,T,0,None,32,32,0,None,1,,,0,32,32,32,214.12279260001378,,,,,,,,,,,214.11007799999788,214.12279260001378,214.12279260001378,214.31055120000383,214.3304388000106,216.10773790001986,None,1,,,,000020,001,2024-10-10_14h36.52.945,cpt_test,2024.2.2,60.270881445849504,2024-10-10 14h37.12.966246 -0600,
34,A,0,None,33,33,0,None,1,,,0,33,33,33,216.12026980001247,,,,,,,,,,,216.1080656000122,216.12026980001247,216.12026980001247,216.30181610002182,216.33495750001748,218.1066599000187,None,1,,,,000020,001,2024-10-10_14h36.52.945,cpt_test,2024.2.2,60.270881445849504,2024-10-10 14h37.12.966246 -0600,
35,E,0,None,34,34,0,None,1,,,0,34,34,34,218.13534780000919,,,,,,,,,,,218.1069738000224,218.13534780000919,218.13534780000919,218.3005184000067,218.35002760001225,220.1043983999989,None,1,,,,000020,001,2024-10-10_14h36.52.945,cpt_test,2024.2.2,60.270881445849504,2024-10-10 14h37.12.966246 -0600,
36,X,1,x,35,35,0,x,1,0.4751864999998361,0.3305463000142481,0,35,35,35,220.11711059999652,,,,,,,,,,,220.10472350000055,220.11711059999652,220.11711059999652,220.31535940000322,220.33179799999925,222.10306090000086,x,1,0.4751864999998361,0.3305463000142481,,000020,001,2024-10-10_14h36.52.945,cpt_test,2024.2.2,60.270881445849504,2024-10-10 14h37.12.966246 -0600,
37,A,0,None,36,36,0,None,1,,,0,36,36,36,222.1158798999968,,,,,,,,,,,222.10342369999853,222.1158798999968,222.1158798999968,222.31352759999572,222.3300502000202,224.11651079999865,None,1,,,,000020,001,2024-10-10_14h36.52.945,cpt_test,2024.2.2,60.270881445849504,2024-10-10 14h37.12.966246 -0600,
38,S,0,None,37,37,0,None,1,,,0,37,37,37,224.12960960000055,,,,,,,,,,,224.11676850001095,224.12960960000055,224.12960960000055,224.31192990002455,224.34516450000228,226.11623549999786,None,1,,,,000020,001,2024-10-10_14h36.52.945,cpt_test,2024.2.2,60.270881445849504,2024-10-10 14h37.12.966246 -0600,
39,U,0,None,38,38,0,None,1,,,0,38,38,38,226.14897920002113,,,,,,,,,,,226.1165707000182,226.14897920002113,226.14897920002113,226.31052970001474,226.3600278000231,228.1142705999955,None,1,,,,000020,001,2024-10-10_14h36.52.945,cpt_test,2024.2.2,60.270881445849504,2024-10-10 14h37.12.966246 -0600,
40,U,0,None,39,39,0,None,1,,,0,39,39,39,228.12571839999873,,,,,,,,,,,228.1145863000129,228.12571839999873,228.12571839999873,228.31184890001896,228.32905480000773,230.11296980001498,None,1,,,,000020,001,2024-10-10_14h36.52.945,cpt_test,2024.2.2,60.270881445849504,2024-10-10 14h37.12.966246 -0600,
41,Q,0,None,40,40,0,None,1,,,0,40,40,40,230.14188340000692,,,,,,,,,,,230.11329660000047,230.14188340000692,230.14188340000692,230.30704179999884,230.35681150000892,232.11118690000148,None,1,,,,000020,001,2024-10-10_14h36.52.945,cpt_test,2024.2.2,60.270881445849504,2024-10-10 14h37.12.966246 -0600,
42,E,0,None,41,41,0,None,1,,,0,41,41,41,232.12401510000927,,,,,,,,,,,232.11151869999594,232.12401510000927,232.12401510000927,232.3054306000122,232.33840140001848,234.10940390001633,None,1,,,,000020,001,2024-10-10_14h36.52.945,cpt_test,2024.2.2,60.270881445849504,2024-10-10 14h37.12.966246 -0600,
43,B,0,None,42,42,0,None,1,,,0,42,42,42,234.14114940000582,,,,,,,,,,,234.10971950000385,234.14114940000582,234.14114940000582,234.3039196000027,234.35349280000082,236.10792629999924,None,1,,,,000020,001,2024-10-10_14h36.52.945,cpt_test,2024.2.2,60.270881445849504,2024-10-10 14h37.12.966246 -0600,
44,O,0,None,43,43,0,None,1,,,0,43,43,43,236.12053760001436,,,,,,,,,,,236.10824190001586,236.12053760001436,236.12053760001436,236.30215440000757,236.33513270001276,238.10633400001097,None,1,,,,000020,001,2024-10-10_14h36.52.945,cpt_test,2024.2.2,60.270881445849504,2024-10-10 14h37.12.966246 -0600,
45,E,0,None,44,44,0,None,1,,,0,44,44,44,238.11908900001436,,,,,,,,,,,238.1066700000083,238.11908900001436,238.11908900001436,238.30146270000841,238.3182075000077,240.10519980001845,None,1,,,,000020,001,2024-10-10_14h36.52.945,cpt_test,2024.2.2,60.270881445849504,2024-10-10 14h37.12.966246 -0600,
46,F,0,None,45,45,0,None,1,,,0,45,45,45,240.11789170000702,,,,,,,,,,,240.1055151000037,240.11789170000702,240.11789170000702,240.31547100000898,240.33199110001442,242.10318230002304,None,1,,,,000020,001,2024-10-10_14h36.52.945,cpt_test,2024.2.2,60.270881445849504,2024-10-10 14h37.12.966246 -0600,
47,V,0,None,46,46,0,None,1,,,0,46,46,46,242.1322490000166,,,,,,,,,,,242.10351110002375,242.1322490000166,242.1322490000166,242.31392810001853,242.34676680000848,244.1012422000058,None,1,,,,000020,001,2024-10-10_14h36.52.945,cpt_test,2024.2.2,60.270881445849504,2024-10-10 14h37.12.966246 -0600,
48,X,1,x,47,47,0,x,1,0.44643410001299344,0.2980622999893967,0,47,47,47,244.11372610001126,,,,,,,,,,,244.10155870000017,244.11372610001126,244.11372610001126,244.30383879999863,244.3237515000219,246.10157090000575,x,1,0.44643410001299344,0.2980622999893967,,000020,001,2024-10-10_14h36.52.945,cpt_test,2024.2.2,60.270881445849504,2024-10-10 14h37.12.966246 -0600,
49,X,1,x,48,48,0,x,1,0.8940847000048961,0.24610230000689626,0,48,48,48,246.11099010001635,,,,,,,,,,,246.1019899000239,246.11099010001635,246.11099010001635,246.31551430001855,246.31551430001855,248.1118342000118,x,1,0.8940847000048961,0.24610230000689626,,000020,001,2024-10-10_14h36.52.945,cpt_test,2024.2.2,60.270881445849504,2024-10-10 14h37.12.966246 -0600,
50,C,0,None,49,49,0,None,1,,,0,49,49,49,248.1312797999999,,,,,,,,,,,248.11201640000218,248.1312797999999,248.1312797999999,248.3089860000182,248.34183240000857,250.11327060000622,None,1,,,,000020,001,2024-10-10_14h36.52.945,cpt_test,2024.2.2,60.270881445849504,2024-10-10 14h37.12.966246 -0600,
51,M,0,None,50,50,0,None,1,,,0,50,50,50,250.1270327999955,,,,,,,,,,,250.1135992000054,250.1270327999955,250.1270327999955,250.31146789999912,250.32935800001724,252.1120192000235,None,1,,,,000020,001,2024-10-10_14h36.52.945,cpt_test,2024.2.2,60.270881445849504,2024-10-10 14h37.12.966246 -0600,
52,D,0,None,51,51,0,None,1,,,0,51,51,51,252.12523010000587,,,,,,,,,,,252.11234290001448,252.12523010000587,252.12523010000587,252.3057572999969,252.33851940001477,254.11294030002318,None,1,,,254.10625700000674,000020,001,2024-10-10_14h36.52.945,cpt_test,2024.2.2,60.270881445849504,2024-10-10 14h37.12.966246 -0600,
53,X,1,x,52,52,0,x,1,0.3955312999896705,0.27451400001882575,0,52,52,52,254.1252233000123,,,,,,,,,,,254.11323610000545,254.1252233000123,254.1252233000123,254.3040564999974,254.33686380001018,256.1080053000187,x,1,0.3955312999896705,0.27451400001882575,,000020,001,2024-10-10_14h36.52.945,cpt_test,2024.2.2,60.270881445849504,2024-10-10 14h37.12.966246 -0600,
54,K,0,None,53,53,0,None,1,,,0,53,53,53,256.1380929000152,,,,,,,,,,,256.108332600008,256.1380929000152,256.1380929000152,256.30234000002383,256.3520761000109,258.11009210001794,None,1,,,,000020,001,2024-10-10_14h36.52.945,cpt_test,2024.2.2,60.270881445849504,2024-10-10 14h37.12.966246 -0600,
55,X,1,x,54,54,0,x,1,0.4230817999923602,0.335276600002544,0,54,54,54,258.1234284999955,,,,,,,,,,,258.1106203000236,258.1234284999955,258.1234284999955,258.3149473000085,258.33689830001094,260.1067562000244,x,1,0.4230817999923602,0.335276600002544,,000020,001,2024-10-10_14h36.52.945,cpt_test,2024.2.2,60.270881445849504,2024-10-10 14h37.12.966246 -0600,
56,N,0,None,55,55,0,None,1,,,0,55,55,55,260.1418677000038,,,,,,,,,,,260.1072376000229,260.1418677000038,260.1418677000038,260.3065804000071,260.3522018000076,262.1033019000024,None,1,,,,000020,001,2024-10-10_14h36.52.945,cpt_test,2024.2.2,60.270881445849504,2024-10-10 14h37.12.966246 -0600,
57,M,0,None,56,56,0,None,1,,,0,56,56,56,262.1160149000061,,,,,,,,,,,262.1036207000143,262.1160149000061,262.1160149000061,262.31405060002,262.330361100001,264.1014624000236,None,1,,,,000020,001,2024-10-10_14h36.52.945,cpt_test,2024.2.2,60.270881445849504,2024-10-10 14h37.12.966246 -0600,
58,X,1,x,57,57,0,x,1,0.36174019999452867,0.251940200017998,0,57,57,57,264.1139863000135,,,,,,,,,,,264.10178379999707,264.1139863000135,264.1139863000135,264.3124033000204,264.32864150000387,266.11655299999984,x,1,0.36174019999452867,0.251940200017998,,000020,001,2024-10-10_14h36.52.945,cpt_test,2024.2.2,60.270881445849504,2024-10-10 14h37.12.966246 -0600,
59,F,0,None,58,58,0,None,1,,,0,58,58,58,266.12927840001066,,,,,,,,,,,266.1168794000114,266.12927840001066,266.12927840001066,266.3106265999959,266.3438378999999,268.11624280002434,None,1,,,,000020,001,2024-10-10_14h36.52.945,cpt_test,2024.2.2,60.270881445849504,2024-10-10 14h37.12.966246 -0600,
60,A,0,None,59,59,0,None,1,,,0,59,59,59,268.13030119999894,,,,,,,,,,,268.1166426000127,268.13030119999894,268.13030119999894,268.30911910001305,268.34222260001116,270.11284780001733,None,1,,,,000020,001,2024-10-10_14h36.52.945,cpt_test,2024.2.2,60.270881445849504,2024-10-10 14h37.12.966246 -0600,
61,X,1,x,60,60,0,x,1,0.3986416000116151,0.31978950000484474,0,60,60,60,270.12542210001266,,,,,,,,,,,270.1131565000105,270.12542210001266,270.12542210001266,270.3099560000119,270.323927200021,272.1127802999981,x,1,0.3986416000116151,0.31978950000484474,,000020,001,2024-10-10_14h36.52.945,cpt_test,2024.2.2,60.270881445849504,2024-10-10 14h37.12.966246 -0600,
62,V,0,None,61,61,0,None,1,,,0,61,61,61,272.12686940000276,,,,,,,,,,,272.11320940000587,272.12686940000276,272.12686940000276,272.3060636000009,272.3386839000159,274.1098224000016,None,1,,,,000020,001,2024-10-10_14h36.52.945,cpt_test,2024.2.2,60.270881445849504,2024-10-10 14h37.12.966246 -0600,
63,U,0,None,62,62,0,None,1,,,0,62,62,62,274.122486200009,,,,,,,,,,,274.1101458000194,274.122486200009,274.122486200009,274.3043366000056,274.3370448000205,276.1080901000241,None,1,,,,000020,001,2024-10-10_14h36.52.945,cpt_test,2024.2.2,60.270881445849504,2024-10-10 14h37.12.966246 -0600,
64,M,0,None,63,63,0,None,1,,,0,63,63,63,276.12069390001125,,,,,,,,,,,276.1084095000115,276.12069390001125,276.12069390001125,276.3025108000147,276.3356672000082,278.1083312999981,None,1,,,,000020,001,2024-10-10_14h36.52.945,cpt_test,2024.2.2,60.270881445849504,2024-10-10 14h37.12.966246 -0600,
65,X,1,x,64,64,0,x,1,0.311630200012587,0.25986530000227503,0,64,64,64,278.12286560001667,,,,,,,,,,,278.1087339000078,278.12286560001667,278.12286560001667,278.30855070002144,278.3228574000241,280.1062066000013,x,1,0.311630200012587,0.25986530000227503,,000020,001,2024-10-10_14h36.52.945,cpt_test,2024.2.2,60.270881445849504,2024-10-10 14h37.12.966246 -0600,
66,A,0,None,65,65,0,None,1,,,0,65,65,65,280.120241800003,,,,,,,,,,,280.1066351000045,280.120241800003,280.120241800003,280.29986190001364,280.3322307000053,282.1030189000012,None,1,,,,000020,001,2024-10-10_14h36.52.945,cpt_test,2024.2.2,60.270881445849504,2024-10-10 14h37.12.966246 -0600,
67,N,0,None,66,66,0,None,1,,,0,66,66,66,282.1160965000163,,,,,,,,,,,282.10334550001426,282.1160965000163,282.1160965000163,282.31433270001435,282.33055090002017,284.1021615000209,None,1,,,,000020,001,2024-10-10_14h36.52.945,cpt_test,2024.2.2,60.270881445849504,2024-10-10 14h37.12.966246 -0600,
68,H,0,None,67,67,0,None,1,,,0,67,67,67,284.1331776000152,,,,,,,,,,,284.1025082000124,284.1331776000152,284.1331776000152,284.2990323000122,284.3456182000227,286.11648799999966,None,1,,,286.1107248000044,000020,001,2024-10-10_14h36.52.945,cpt_test,2024.2.2,60.270881445849504,2024-10-10 14h37.12.966246 -0600,
69,A,0,None,68,68,0,None,1,,,0,68,68,68,286.1296659000218,,,,,,,,,,,286.1168247000023,286.1296659000218,286.1296659000218,286.31085050001275,286.344055100024,288.1149476999999,None,1,,,,000020,001,2024-10-10_14h36.52.945,cpt_test,2024.2.2,60.270881445849504,2024-10-10 14h37.12.966246 -0600,
70,X,1,x,69,69,0,x,1,0.3426861999905668,0.27847940000356175,0,69,69,69,288.12839410000015,,,,,,,,,,,288.1152579000045,288.12839410000015,288.12839410000015,288.30945290002273,288.3422369000036,290.1130313000176,x,1,0.3426861999905668,0.27847940000356175,,000020,001,2024-10-10_14h36.52.945,cpt_test,2024.2.2,60.270881445849504,2024-10-10 14h37.12.966246 -0600,
71,F,0,None,70,70,0,None,1,,,0,70,70,70,290.1256298000226,,,,,,,,,,,290.11336489999667,290.1256298000226,290.1256298000226,290.3077040000062,290.3406499999983,292.1138569000177,None,1,,,,000020,001,2024-10-10_14h36.52.945,cpt_test,2024.2.2,60.270881445849504,2024-10-10 14h37.12.966246 -0600,
72,N,0,None,71,71,0,None,1,,,0,71,71,71,292.12806370001636,,,,,,,,,,,292.11425189999864,292.12806370001636,292.12806370001636,292.31624440001906,292.33321690000594,294.1131488000101,None,1,,,,000020,001,2024-10-10_14h36.52.945,cpt_test,2024.2.2,60.270881445849504,2024-10-10 14h37.12.966246 -0600,
73,K,0,None,72,72,0,None,1,,,0,72,72,72,294.12727019999875,,,,,,,,,,,294.11356860000524,294.12727019999875,294.12727019999875,294.3043882000202,294.337448700011,296.10848799999803,None,1,,,,000020,001,2024-10-10_14h36.52.945,cpt_test,2024.2.2,60.270881445849504,2024-10-10 14h37.12.966246 -0600,
74,Y,0,None,73,73,0,None,1,,,0,73,73,73,296.1209422000102,,,,,,,,,,,296.10881340000196,296.1209422000102,296.1209422000102,296.3027589000121,296.335647800006,298.1087698000192,None,1,,,,000020,001,2024-10-10_14h36.52.945,cpt_test,2024.2.2,60.270881445849504,2024-10-10 14h37.12.966246 -0600,
75,Y,0,None,74,74,0,None,1,,,0,74,74,74,298.118297500012,,,,,,,,,,,298.1091579000058,298.118297500012,298.118297500012,298.300985400012,298.3175271000073,300.10518760001287,None,1,,,,000020,001,2024-10-10_14h36.52.945,cpt_test,2024.2.2,60.270881445849504,2024-10-10 14h37.12.966246 -0600,
76,R,0,None,75,75,0,None,1,,,0,75,75,75,300.11801010000636,,,,,,,,,,,300.1055101000238,300.11801010000636,300.11801010000636,300.31611690000864,300.33252350002294,302.10433150001336,None,1,,,,000020,001,2024-10-10_14h36.52.945,cpt_test,2024.2.2,60.270881445849504,2024-10-10 14h37.12.966246 -0600,
77,X,1,x,76,76,0,x,1,0.4749491999973543,0.35662939999019727,0,76,76,76,302.11713739999686,,,,,,,,,,,302.1046916000196,302.11713739999686,302.11713739999686,302.31444630000624,302.3306559000048,304.1017109999957,x,1,0.4749491999973543,0.35662939999019727,,000020,001,2024-10-10_14h36.52.945,cpt_test,2024.2.2,60.270881445849504,2024-10-10 14h37.12.966246 -0600,
78,R,0,None,77,77,0,None,1,,,0,77,77,77,304.11439339999924,,,,,,,,,,,304.1020639000053,304.11439339999924,304.11439339999924,304.3129050999996,304.32923020000453,306.1167284999974,None,1,,,,000020,001,2024-10-10_14h36.52.945,cpt_test,2024.2.2,60.270881445849504,2024-10-10 14h37.12.966246 -0600,
79,F,0,None,78,78,0,None,1,,,0,78,78,78,306.129735399998,,,,,,,,,,,306.11706840002444,306.129735399998,306.129735399998,306.31099930001074,306.3441003000189,308.1026799000101,None,1,,,,000020,001,2024-10-10_14h36.52.945,cpt_test,2024.2.2,60.270881445849504,2024-10-10 14h37.12.966246 -0600,
80,K,0,None,79,79,0,None,1,,,0,79,79,79,308.1172024999978,,,,,,,,,,,308.1030822000175,308.1172024999978,308.1172024999978,308.30942150001647,308.3259656000009,310.11353570001666,None,1,,,,000020,001,2024-10-10_14h36.52.945,cpt_test,2024.2.2,60.270881445849504,2024-10-10 14h37.12.966246 -0600,
81,O,0,None,80,80,0,None,1,,,0,80,80,80,310.1265366000007,,,,,,,,,,,310.1138455000182,310.1265366000007,310.1265366000007,310.3079462000169,310.3407350000052,312.11195360001875,None,1,,,,000020,001,2024-10-10_14h36.52.945,cpt_test,2024.2.2,60.270881445849504,2024-10-10 14h37.12.966246 -0600,
82,F,0,None,81,81,0,None,1,,,0,81,81,81,312.1250663000101,,,,,,,,,,,312.1122709000192,312.1250663000101,312.1250663000101,312.30623020001804,312.3391711000004,314.1104089000146,None,1,,,,000020,001,2024-10-10_14h36.52.945,cpt_test,2024.2.2,60.270881445849504,2024-10-10 14h37.12.966246 -0600,
83,F,0,None,82,82,0,None,1,,,0,82,82,82,314.1213463000022,,,,,,,,,,,314.1107344000193,314.1213463000022,314.1213463000022,314.30447570001706,314.32113850000314,316.1081310000154,None,1,,,,000020,001,2024-10-10_14h36.52.945,cpt_test,2024.2.2,60.270881445849504,2024-10-10 14h37.12.966246 -0600,
84,W,0,None,83,83,0,None,1,,,0,83,83,83,316.14162460001535,,,,,,,,,,,316.10843670001486,316.14162460001535,316.14162460001535,316.30263069999637,316.35199960001046,318.1182276000036,None,1,,,318.1077435000043,000020,001,2024-10-10_14h36.52.945,cpt_test,2024.2.2,60.270881445849504,2024-10-10 14h37.12.966246 -0600,
85,X,1,x,84,84,0,x,1,0.3009705000149552,0.34888299999875017,0,84,84,84,318.1361031999986,,,,,,,,,,,318.11876589999883,318.1361031999986,318.1361031999986,318.31192259999807,318.3417063000088,320.1055981000245,x,1,0.3009705000149552,0.34888299999875017,,000020,001,2024-10-10_14h36.52.945,cpt_test,2024.2.2,60.270881445849504,2024-10-10 14h37.12.966246 -0600,
86,J,0,None,85,85,0,None,1,,,0,85,85,85,320.11926080001285,,,,,,,,,,,320.1059482000128,320.11926080001285,320.11926080001285,320.3160673000093,320.33270020000055,322.1039485000074,None,1,,,,000020,001,2024-10-10_14h36.52.945,cpt_test,2024.2.2,60.270881445849504,2024-10-10 14h37.12.966246 -0600,
87,N,0,None,86,86,0,None,1,,,0,86,86,86,322.11653070000466,,,,,,,,,,,322.1042679999955,322.11653070000466,322.11653070000466,322.3147678000096,322.33089890002157,324.10197710001376,None,1,,,,000020,001,2024-10-10_14h36.52.945,cpt_test,2024.2.2,60.270881445849504,2024-10-10 14h37.12.966246 -0600,
88,X,1,x,87,87,0,x,1,0.4022498000122141,0.344555899995612,0,87,87,87,324.11455280001974,,,,,,,,,,,324.1022856000054,324.11455280001974,324.11455280001974,324.31593989999965,324.31593989999965,326.11701710001216,x,1,0.4022498000122141,0.344555899995612,,000020,001,2024-10-10_14h36.52.945,cpt_test,2024.2.2,60.270881445849504,2024-10-10 14h37.12.966246 -0600,
89,T,0,None,88,88,0,None,1,,,0,88,88,88,326.12977050000336,,,,,,,,,,,326.11733920002007,326.12977050000336,326.12977050000336,326.3129760000156,326.3276039000193,328.1153306000051,None,1,,,,000020,001,2024-10-10_14h36.52.945,cpt_test,2024.2.2,60.270881445849504,2024-10-10 14h37.12.966246 -0600,
90,I,0,None,89,89,0,None,1,,,0,89,89,89,328.12770380001166,,,,,,,,,,,328.1156355999992,328.12770380001166,328.12770380001166,328.3095755999966,328.34321300001466,330.1139136000129,None,1,,,,000020,001,2024-10-10_14h36.52.945,cpt_test,2024.2.2,60.270881445849504,2024-10-10 14h37.12.966246 -0600,
91,P,0,None,90,90,0,None,1,,,0,90,90,90,330.12694570000167,,,,,,,,,,,330.11424490000354,330.12694570000167,330.12694570000167,330.3093232999963,330.3261708000209,332.1121719000221,None,1,,,,000020,001,2024-10-10_14h36.52.945,cpt_test,2024.2.2,60.270881445849504,2024-10-10 14h37.12.966246 -0600,
92,X,1,x,91,91,0,x,1,0.3481926999811549,0.2806873000226915,0,91,91,91,332.1260852999985,,,,,,,,,,,332.11248450001585,332.1260852999985,332.1260852999985,332.3081889000023,332.3394567000214,334.11037870001746,x,1,0.3481926999811549,0.2806873000226915,,000020,001,2024-10-10_14h36.52.945,cpt_test,2024.2.2,60.270881445849504,2024-10-10 14h37.12.966246 -0600,
93,B,0,None,92,92,0,None,1,,,0,92,92,92,334.1234001000121,,,,,,,,,,,334.1107131000026,334.1234001000121,334.1234001000121,334.3047005000117,334.33787160000065,336.10873269999865,None,1,,,,000020,001,2024-10-10_14h36.52.945,cpt_test,2024.2.2,60.270881445849504,2024-10-10 14h37.12.966246 -0600,
94,M,0,None,93,93,0,None,1,,,0,93,93,93,336.1218114000221,,,,,,,,,,,336.1090461999993,336.1218114000221,336.1218114000221,336.3030541000189,336.336255000002,338.1071024000121,None,1,,,,000020,001,2024-10-10_14h36.52.945,cpt_test,2024.2.2,60.270881445849504,2024-10-10 14h37.12.966246 -0600,
95,B,0,None,94,94,0,None,1,,,0,94,94,94,338.1201517000154,,,,,,,,,,,338.10740910001914,338.1201517000154,338.1201517000154,338.3014344999974,338.33463700002176,340.1053535999963,None,1,,,,000020,001,2024-10-10_14h36.52.945,cpt_test,2024.2.2,60.270881445849504,2024-10-10 14h37.12.966246 -0600,
96,I,0,None,95,95,0,None,1,,,0,95,95,95,340.11836150000454,,,,,,,,,,,340.10566709999694,340.11836150000454,340.11836150000454,340.30179009999847,340.3183610000124,342.1041857000091,None,1,,,,000020,001,2024-10-10_14h36.52.945,cpt_test,2024.2.2,60.270881445849504,2024-10-10 14h37.12.966246 -0600,
97,X,1,x,96,96,0,x,1,0.38303200001246296,0.2596614999929443,0,96,96,96,342.1176112999965,,,,,,,,,,,342.1045286000008,342.1176112999965,342.1176112999965,342.3148962999985,342.33108960001846,344.1021526000113,x,1,0.38303200001246296,0.2596614999929443,,000020,001,2024-10-10_14h36.52.945,cpt_test,2024.2.2,60.270881445849504,2024-10-10 14h37.12.966246 -0600,
98,J,0,None,97,97,0,None,1,,,0,97,97,97,344.1154781000223,,,,,,,,,,,344.10247620000155,344.1154781000223,344.1154781000223,344.31321580000804,344.32950930000516,346.116991900024,None,1,,,,000020,001,2024-10-10_14h36.52.945,cpt_test,2024.2.2,60.270881445849504,2024-10-10 14h37.12.966246 -0600,
99,X,1,x,98,98,0,x,1,0.44974049998563714,0.2890542999957688,0,98,98,98,346.13022069999715,,,,,,,,,,,346.11729890000424,346.13022069999715,346.13022069999715,346.31142510002246,346.3446340000082,348.1154343000089,x,1,0.44974049998563714,0.2890542999957688,,000020,001,2024-10-10_14h36.52.945,cpt_test,2024.2.2,60.270881445849504,2024-10-10 14h37.12.966246 -0600,
100,U,0,None,99,99,0,None,1,,,0,99,99,99,348.1282105999999,,,,,,,,,,,348.11577530001523,348.1282105999999,348.1282105999999,348.30964459999814,348.342770200019,350.10107309999876,None,1,,,,000020,001,2024-10-10_14h36.52.945,cpt_test,2024.2.2,60.270881445849504,2024-10-10 14h37.12.966246 -0600,
101,D,0,None,100,100,0,None,1,,,0,100,100,100,350.1150522000098,,,,,,,,,,,350.1014794000075,350.1150522000098,350.1150522000098,350.3053659000143,350.32263550002244,352.1136587000219,None,1,,,352.1064183000126,000020,001,2024-10-10_14h36.52.945,cpt_test,2024.2.2,60.270881445849504,2024-10-10 14h37.12.966246 -0600,
102,X,1,x,101,101,0,x,1,0.3749453999917023,0.27901070000370964,0,101,101,101,352.1281423000037,,,,,,,,,,,352.1140484000207,352.1281423000037,352.1281423000037,352.31812770001125,352.3361287000007,354.11072980001336,x,1,0.3749453999917023,0.27901070000370964,,000020,001,2024-10-10_14h36.52.945,cpt_test,2024.2.2,60.270881445849504,2024-10-10 14h37.12.966246 -0600,
103,X,1,x,102,102,0,x,1,0.5483549000055064,0.18629209999926388,0,102,102,102,354.12171460001264,,,,,,,,,,,354.1111022999976,354.12171460001264,354.12171460001264,354.3073893999972,354.32423410000047,356.1088198000216,x,1,0.5483549000055064,0.18629209999926388,,000020,001,2024-10-10_14h36.52.945,cpt_test,2024.2.2,60.270881445849504,2024-10-10 14h37.12.966246 -0600,
104,N,0,None,103,103,0,None,1,,,0,103,103,103,356.12183460002416,,,,,,,,,,,356.1091413999966,356.12183460002416,356.12183460002416,356.3032710000116,356.3363672000123,358.1079874999996,None,1,,,358.10198460001266,000020,001,2024-10-10_14h36.52.945,cpt_test,2024.2.2,60.270881445849504,2024-10-10 14h37.12.966246 -0600,
105,U,0,None,104,104,0,None,1,,,0,104,104,104,358.12082199999713,,,,,,,,,,,358.10829780000495,358.12082199999713,358.12082199999713,358.30168980002054,358.33472500002244,360.1069500000158,None,1,,,,000020,001,2024-10-10_14h36.52.945,cpt_test,2024.2.2,60.270881445849504,2024-10-10 14h37.12.966246 -0600,
106,T,0,None,105,105,0,None,1,,,0,105,105,105,360.1203429000161,,,,,,,,,,,360.1073543000093,360.1203429000161,360.1203429000161,360.3000882000197,360.3328817000147,362.1040171000059,None,1,,,,000020,001,2024-10-10_14h36.52.945,cpt_test,2024.2.2,60.270881445849504,2024-10-10 14h37.12.966246 -0600,
107,W,0,None,106,106,0,None,1,,,0,106,106,106,362.11769650000497,,,,,,,,,,,362.10434650001116,362.11769650000497,362.11769650000497,362.3151771000121,362.3314336000185,364.10233910000534,None,1,,,,000020,001,2024-10-10_14h36.52.945,cpt_test,2024.2.2,60.270881445849504,2024-10-10 14h37.12.966246 -0600,
108,N,0,None,107,107,0,None,1,,,0,107,107,107,364.11552300001495,,,,,,,,,,,364.1026652000146,364.11552300001495,364.11552300001495,364.3134587999957,364.32967900001677,366.11717440001667,None,1,,,,000020,001,2024-10-10_14h36.52.945,cpt_test,2024.2.2,60.270881445849504,2024-10-10 14h37.12.966246 -0600,
109,R,0,None,108,108,0,None,1,,,0,108,108,108,366.1308252000017,,,,,,,,,,,366.1174809000222,366.1308252000017,366.1308252000017,366.31168980000075,366.344802800013,368.1159674000228,None,1,,,,000020,001,2024-10-10_14h36.52.945,cpt_test,2024.2.2,60.270881445849504,2024-10-10 14h37.12.966246 -0600,
110,X,1,x,109,109,0,x,1,0.6478726000059396,0.25969430000986904,0,109,109,109,368.1292840000242,,,,,,,,,,,368.11631569999736,368.1292840000242,368.1292840000242,368.30998330001603,368.3434302000096,370.1142292000004,x,1,0.6478726000059396,0.25969430000986904,,000020,001,2024-10-10_14h36.52.945,cpt_test,2024.2.2,60.270881445849504,2024-10-10 14h37.12.966246 -0600,
111,A,0,None,110,110,0,None,1,,,0,110,110,110,370.1273730999965,,,,,,,,,,,370.1145674000145,370.1273730999965,370.1273730999965,370.3093919000239,370.3432843000046,372.1119854999997,None,1,,,,000020,001,2024-10-10_14h36.52.945,cpt_test,2024.2.2,60.270881445849504,2024-10-10 14h37.12.966246 -0600,
112,X,1,x,111,111,0,x,1,0.4655919999931939,0.22769210001570173,0,111,111,111,372.12487700002384,,,,,,,,,,,372.1122994000034,372.12487700002384,372.12487700002384,372.30683660000795,372.3399359000032,374.1108976000105,x,1,0.4655919999931939,0.22769210001570173,,000020,001,2024-10-10_14h36.52.945,cpt_test,2024.2.2,60.270881445849504,2024-10-10 14h37.12.966246 -0600,
113,G,0,None,112,112,0,None,1,,,0,112,112,112,374.12468840001384,,,,,,,,,,,374.1112366000016,374.12468840001384,374.12468840001384,374.3050265000202,374.3382886000036,376.10952290002024,None,1,,,,000020,001,2024-10-10_14h36.52.945,cpt_test,2024.2.2,60.270881445849504,2024-10-10 14h37.12.966246 -0600,
114,O,0,None,113,113,0,None,1,,,0,113,113,113,376.12269460002426,,,,,,,,,,,376.10985870001605,376.12269460002426,376.12269460002426,376.3037092000013,376.3364019000146,378.1077551000053,None,1,,,,000020,001,2024-10-10_14h36.52.945,cpt_test,2024.2.2,60.270881445849504,2024-10-10 14h37.12.966246 -0600,
115,U,0,None,114,114,0,None,1,,,0,114,114,114,378.1210901000013,,,,,,,,,,,378.10806490000687,378.1210901000013,378.1210901000013,378.3019297000137,378.33492010002374,380.1062892000191,None,1,,,,000020,001,2024-10-10_14h36.52.945,cpt_test,2024.2.2,60.270881445849504,2024-10-10 14h37.12.966246 -0600,
116,X,1,x,115,115,0,x,1,0.4732427999842912,0.28930240002227947,0,115,115,115,380.11912570000277,,,,,,,,,,,380.1066276000056,380.11912570000277,380.11912570000277,380.3003005000064,380.3328879000037,382.1039803000167,x,1,0.4732427999842912,0.28930240002227947,,000020,001,2024-10-10_14h36.52.945,cpt_test,2024.2.2,60.270881445849504,2024-10-10 14h37.12.966246 -0600,
117,X,1,x,116,116,0,x,1,0.3606467999925371,0.31128239998361096,0,116,116,116,382.1153404000215,,,,,,,,,,,382.1043210000207,382.1153404000215,382.1153404000215,382.3147915000154,382.3147915000154,384.1026393000211,x,1,0.3606467999925371,0.31128239998361096,,000020,001,2024-10-10_14h36.52.945,cpt_test,2024.2.2,60.270881445849504,2024-10-10 14h37.12.966246 -0600,
118,C,0,None,117,117,0,None,1,,,0,117,117,117,384.116156700009,,,,,,,,,,,384.1029857000103,384.116156700009,384.116156700009,384.3135732000228,384.32981560000917,386.10110369999893,None,1,,,,000020,001,2024-10-10_14h36.52.945,cpt_test,2024.2.2,60.270881445849504,2024-10-10 14h37.12.966246 -0600,
119,A,0,None,118,118,0,None,1,,,0,118,118,118,386.11379260002286,,,,,,,,,,,386.1014184000087,386.11379260002286,386.11379260002286,386.31202410001424,386.3282111000153,388.1161943000043,None,1,,,,000020,001,2024-10-10_14h36.52.945,cpt_test,2024.2.2,60.270881445849504,2024-10-10 14h37.12.966246 -0600,
120,X,1,x,119,119,0,x,1,0.36486309999600053,0.2873697000031825,0,119,119,119,388.12929500002065,,,,,,,,,,,388.11649760001455,388.12929500002065,388.12929500002065,388.31031080000685,388.34337340001366,390.1140882000036,x,1,0.36486309999600053,0.2873697000031825,,000020,001,2024-10-10_14h36.52.945,cpt_test,2024.2.2,60.270881445849504,2024-10-10 14h37.12.966246 -0600,
121,H,0,None,120,120,0,None,1,,,0,120,120,120,390.1266636000073,,,,,,,,,,,390.11442960001295,390.1266636000073,390.1266636000073,390.3086672000063,390.3415542000148,392.11270520000835,None,1,,,,000020,001,2024-10-10_14h36.52.945,cpt_test,2024.2.2,60.270881445849504,2024-10-10 14h37.12.966246 -0600,
122,M,0,None,121,121,0,None,1,,,0,121,121,121,392.1253800000122,,,,,,,,,,,392.11301800000365,392.1253800000122,392.1253800000122,392.3137155000004,392.3304988000018,394.1111129000201,None,1,,,,000020,001,2024-10-10_14h36.52.945,cpt_test,2024.2.2,60.270881445849504,2024-10-10 14h37.12.966246 -0600,
123,V,0,None,122,122,0,None,1,,,0,122,122,122,394.12406610001926,,,,,,,,,,,394.11141959999804,394.12406610001926,394.12406610001926,394.30515900001046,394.33822530001635,396.10710580000887,None,1,,,,000020,001,2024-10-10_14h36.52.945,cpt_test,2024.2.2,60.270881445849504,2024-10-10 14h37.12.966246 -0600,
124,K,0,None,123,123,0,None,1,,,0,123,123,123,396.11961789999623,,,,,,,,,,,396.10737280000467,396.11961789999623,396.11961789999623,396.30375310001546,396.3199779000133,398.1079694000073,None,1,,,,000020,001,2024-10-10_14h36.52.945,cpt_test,2024.2.2,60.270881445849504,2024-10-10 14h37.12.966246 -0600,
125,G,0,None,124,124,0,None,1,,,0,124,124,124,398.12114380000276,,,,,,,,,,,398.10829110001214,398.12114380000276,398.12114380000276,398.30208039999707,398.33492780002416,400.1071595000103,None,1,,,,000020,001,2024-10-10_14h36.52.945,cpt_test,2024.2.2,60.270881445849504,2024-10-10 14h37.12.966246 -0600,
126,A,0,None,125,125,0,None,1,,,0,125,125,125,400.1220078000042,,,,,,,,,,,400.1075585000217,400.1220078000042,400.1220078000042,400.3101575000037,400.32442119999905,402.10407120001037,None,1,,,,000020,001,2024-10-10_14h36.52.945,cpt_test,2024.2.2,60.270881445849504,2024-10-10 14h37.12.966246 -0600,
127,X,1,x,126,126,0,x,1,0.31946469997637905,0.307553500024369,0,126,126,126,402.11696050001774,,,,,,,,,,,402.1044052000216,402.11696050001774,402.11696050001774,402.3153053999995,402.3318892000243,404.1026233000157,x,1,0.31946469997637905,0.307553500024369,,000020,001,2024-10-10_14h36.52.945,cpt_test,2024.2.2,60.270881445849504,2024-10-10 14h37.12.966246 -0600,
128,N,0,None,127,127,0,None,1,,,0,127,127,127,404.11576650000643,,,,,,,,,,,404.1029475000105,404.11576650000643,404.11576650000643,404.3137917999993,404.33023059999687,406.1011962000048,None,1,,,,000020,001,2024-10-10_14h36.52.945,cpt_test,2024.2.2,60.270881445849504,2024-10-10 14h37.12.966246 -0600,
129,Y,0,None,128,128,0,None,1,,,0,128,128,128,406.1141421000066,,,,,,,,,,,406.1015180000104,406.1141421000066,406.1141421000066,406.3119466000062,406.3285711000208,408.11610169999767,None,1,,,,000020,001,2024-10-10_14h36.52.945,cpt_test,2024.2.2,60.270881445849504,2024-10-10 14h37.12.966246 -0600,
130,W,0,None,129,129,0,None,1,,,0,129,129,129,408.1294499000069,,,,,,,,,,,408.1164112999977,408.1294499000069,408.1294499000069,408.3105034000182,408.34349759999895,410.114664200024,None,1,,,,000020,001,2024-10-10_14h36.52.945,cpt_test,2024.2.2,60.270881445849504,2024-10-10 14h37.12.966246 -0600,
131,L,0,None,130,130,0,None,1,,,0,130,130,130,410.12780680001015,,,,,,,,,,,410.114971700008,410.12780680001015,410.12780680001015,410.3089133000176,410.3416593000002,412.11262890000944,None,1,,,,000020,001,2024-10-10_14h36.52.945,cpt_test,2024.2.2,60.270881445849504,2024-10-10 14h37.12.966246 -0600,
132,F,0,None,131,131,0,None,1,,,0,131,131,131,412.1260465000232,,,,,,,,,,,412.11293780000415,412.1260465000232,412.1260465000232,412.31783899999573,412.33632810000563,414.11089589999756,None,1,,,,000020,001,2024-10-10_14h36.52.945,cpt_test,2024.2.2,60.270881445849504,2024-10-10 14h37.12.966246 -0600,
133,E,0,None,132,132,0,None,1,,,0,132,132,132,414.12422320002224,,,,,,,,,,,414.11121100001037,414.12422320002224,414.12422320002224,414.30540559999645,414.33860690001165,416.1093347000133,None,1,,,,000020,001,2024-10-10_14h36.52.945,cpt_test,2024.2.2,60.270881445849504,2024-10-10 14h37.12.966246 -0600,
134,L,0,None,133,133,0,None,1,,,0,133,133,133,416.1221628000203,,,,,,,,,,,416.109655200009,416.1221628000203,416.1221628000203,416.3039537000004,416.3367458000139,418.1084189999965,None,1,,,,000020,001,2024-10-10_14h36.52.945,cpt_test,2024.2.2,60.270881445849504,2024-10-10 14h37.12.966246 -0600,
135,K,0,None,134,134,0,None,1,,,0,134,134,134,418.1214982000238,,,,,,,,,,,418.10872310001287,418.1214982000238,418.1214982000238,418.3022656000103,418.3351432000054,420.10652040000423,None,1,,,,000020,001,2024-10-10_14h36.52.945,cpt_test,2024.2.2,60.270881445849504,2024-10-10 14h37.12.966246 -0600,
136,Q,0,None,135,135,0,None,1,,,0,135,135,135,420.1196844000078,,,,,,,,,,,420.10685589999775,420.1196844000078,420.1196844000078,420.3008112000243,420.3334628000157,422.10462930001086,None,1,,,,000020,001,2024-10-10_14h36.52.945,cpt_test,2024.2.2,60.270881445849504,2024-10-10 14h37.12.966246 -0600,
137,X,1,x,136,136,0,x,1,0.34004369998001494,0.27873650001129135,0,136,136,136,422.117760299996,,,,,,,,,,,422.10496490000514,422.117760299996,422.117760299996,422.31562140001915,422.33201270000427,424.10284000000684,x,1,0.34004369998001494,0.27873650001129135,,000020,001,2024-10-10_14h36.52.945,cpt_test,2024.2.2,60.270881445849504,2024-10-10 14h37.12.966246 -0600,
138,J,0,None,137,137,0,None,1,,,0,137,137,137,424.1158574000001,,,,,,,,,,,424.10318050000933,424.1158574000001,424.1158574000001,424.313934100006,424.3305397000222,426.10113990001264,None,1,,,,000020,001,2024-10-10_14h36.52.945,cpt_test,2024.2.2,60.270881445849504,2024-10-10 14h37.12.966246 -0600,
139,X,1,x,138,138,0,x,1,0.3642634999996517,0.27023380002356134,0,138,138,138,426.1143159000203,,,,,,,,,,,426.10145240000566,426.1143159000203,426.1143159000203,426.3122201000224,426.3287653000152,428.11578480000026,x,1,0.3642634999996517,0.27023380002356134,,000020,001,2024-10-10_14h36.52.945,cpt_test,2024.2.2,60.270881445849504,2024-10-10 14h37.12.966246 -0600,
140,E,0,None,139,139,0,None,1,,,0,139,139,139,428.1276858000201,,,,,,,,,,,428.115981800016,428.1276858000201,428.1276858000201,428.3107275000075,428.3270702000009,430.11498510002275,None,1,,,,000020,001,2024-10-10_14h36.52.945,cpt_test,2024.2.2,60.270881445849504,2024-10-10 14h37.12.966246 -0600,
141,T,0,None,140,140,0,None,1,,,0,140,140,140,430.12896410000394,,,,,,,,,,,430.1153048000124,430.12896410000394,430.12896410000394,430.30894450002233,430.3421212999965,432.11313209999935,None,1,,,,000020,001,2024-10-10_14h36.52.945,cpt_test,2024.2.2,60.270881445849504,2024-10-10 14h37.12.966246 -0600,
142,X,1,x,141,141,0,x,1,0.539214600023115,0.2864848999888636,0,141,141,141,432.1259048000211,,,,,,,,,,,432.11345289999736,432.1259048000211,432.1259048000211,432.30745079999906,432.34026280001854,434.1111511000199,x,1,0.539214600023115,0.2864848999888636,,000020,001,2024-10-10_14h36.52.945,cpt_test,2024.2.2,60.270881445849504,2024-10-10 14h37.12.966246 -0600,
143,Q,0,None,142,142,0,None,1,,,0,142,142,142,434.1247723000124,,,,,,,,,,,434.11149199999636,434.1247723000124,434.1247723000124,434.3058076000016,434.3386242999986,436.1100151000137,None,1,,,,000020,001,2024-10-10_14h36.52.945,cpt_test,2024.2.2,60.270881445849504,2024-10-10 14h37.12.966246 -0600,
144,V,0,None,143,143,0,None,1,,,0,143,143,143,436.1231263000227,,,,,,,,,,,436.11033060000045,436.1231263000227,436.1231263000227,436.303968000022,436.33711920000496,438.1084219000186,None,1,,,,000020,001,2024-10-10_14h36.52.945,cpt_test,2024.2.2,60.270881445849504,2024-10-10 14h37.12.966246 -0600,
145,Y,0,None,144,144,0,None,1,,,0,144,144,144,438.12155130002066,,,,,,,,,,,438.10874280001735,438.12155130002066,438.12155130002066,438.30248720000964,438.335556200007,440.1093155000126,None,1,,,440.1015175000066,000020,001,2024-10-10_14h36.52.945,cpt_test,2024.2.2,60.270881445849504,2024-10-10 14h37.12.966246 -0600,
146,O,0,None,145,145,0,None,1,,,0,145,145,145,440.123694400012,,,,,,,,,,,440.1097256000212,440.123694400012,440.123694400012,440.30080600001384,440.33365980000235,442.10487130002,None,1,,,,000020,001,2024-10-10_14h36.52.945,cpt_test,2024.2.2,60.270881445849504,2024-10-10 14h37.12.966246 -0600,
147,T,0,None,146,146,0,None,1,,,0,146,146,146,442.1180855999992,,,,,,,,,,,442.10517630001414,442.1180855999992,442.1180855999992,442.31554770001094,442.33186840001144,444.1033609000151,None,1,,,,000020,001,2024-10-10_14h36.52.945,cpt_test,2024.2.2,60.270881445849504,2024-10-10 14h37.12.966246 -0600,
148,X,1,x,147,147,0,x,1,0.3788735000125598,0.27937599999131635,0,147,147,147,444.11633200000506,,,,,,,,,,,444.10367130002123,444.11633200000506,444.11633200000506,444.31429930002196,444.33064100000774,446.10369070002344,x,1,0.3788735000125598,0.27937599999131635,,000020,001,2024-10-10_14h36.52.945,cpt_test,2024.2.2,60.270881445849504,2024-10-10 14h37.12.966246 -0600,
149,T,0,None,148,148,0,None,1,,,0,148,148,148,446.11824350000825,,,,,,,,,,,446.10410560001037,446.11824350000825,446.11824350000825,446.3068838000181,446.3241142000188,448.11666110000806,None,1,,,448.1106828000047,000020,001,2024-10-10_14h36.52.945,cpt_test,2024.2.2,60.270881445849504,2024-10-10 14h37.12.966246 -0600,
150,S,0,None,149,149,0,None,1,,,0,149,149,149,448.1296346000163,,,,,,,,,,,448.1169789000123,448.1296346000163,448.1296346000163,448.31092089999584,448.3438170000154,450.10114810001687,None,1,,,,000020,001,2024-10-10_14h36.52.945,cpt_test,2024.2.2,60.270881445849504,2024-10-10 14h37.12.966246 -0600,
151,L,0,None,150,150,0,None,1,,,0,150,150,150,450.1182992999966,,,,,,,,,,,450.101696800004,450.1182992999966,450.1182992999966,450.31354150001425,450.32962880001287,452.1131343000161,None,1,,,,000020,001,2024-10-10_14h36.52.945,cpt_test,2024.2.2,60.270881445849504,2024-10-10 14h37.12.966246 -0600,
152,V,0,None,151,151,0,None,1,,,0,151,151,151,452.1261632000096,,,,,,,,,,,452.1134544000088,452.1261632000096,452.1261632000096,452.3075167000061,452.3404645000119,454.1118202000216,None,1,,,,000020,001,2024-10-10_14h36.52.945,cpt_test,2024.2.2,60.270881445849504,2024-10-10 14h37.12.966246 -0600,
153,C,0,None,152,152,0,None,1,,,0,152,152,152,454.1249762000225,,,,,,,,,,,454.11213240001234,454.1249762000225,454.1249762000225,454.30702010000823,454.34099960001186,456.11004960001446,None,1,,,,000020,001,2024-10-10_14h36.52.945,cpt_test,2024.2.2,60.270881445849504,2024-10-10 14h37.12.966246 -0600,
154,U,0,None,153,153,0,None,1,,,0,153,153,153,456.1232339999988,,,,,,,,,,,456.1103690000018,456.1232339999988,456.1232339999988,456.3044086000009,456.3419756000221,458.11141440001666,None,1,,,458.1040789000108,000020,001,2024-10-10_14h36.52.945,cpt_test,2024.2.2,60.270881445849504,2024-10-10 14h37.12.966246 -0600,
155,X,1,x,154,154,0,x,1,0.3953281000140123,0.31105839999509044,0,154,154,154,458.1261562000145,,,,,,,,,,,458.11191370000597,458.1261562000145,458.1261562000145,458.31170660001226,458.3263004000182,460.10958780001965,x,1,0.3953281000140123,0.31105839999509044,,000020,001,2024-10-10_14h36.52.945,cpt_test,2024.2.2,60.270881445849504,2024-10-10 14h37.12.966246 -0600,
156,X,1,x,155,155,0,None,0,,,0,155,155,155,460.1190654000093,,,,,,,,,,,460.10999550001,460.1190654000093,460.1190654000093,460.30686090001836,460.32342510001035,462.10248530001263,None,0,,,,000020,001,2024-10-10_14h36.52.945,cpt_test,2024.2.2,60.270881445849504,2024-10-10 14h37.12.966246 -0600,
157,L,0,None,156,156,0,None,1,,,0,156,156,156,462.11570230001234,,,,,,,,,,,462.10271220002323,462.11570230001234,462.11570230001234,462.31569590000436,462.31569590000436,464.1071722000197,None,1,,,,000020,001,2024-10-10_14h36.52.945,cpt_test,2024.2.2,60.270881445849504,2024-10-10 14h37.12.966246 -0600,
158,W,0,None,157,157,0,None,1,,,0,157,157,157,464.12179560001823,,,,,,,,,,,464.1075603000063,464.12179560001823,464.12179560001823,464.3128646000114,464.3296443000145,466.1038884000154,None,1,,,,000020,001,2024-10-10_14h36.52.945,cpt_test,2024.2.2,60.270881445849504,2024-10-10 14h37.12.966246 -0600,
159,A,0,None,158,158,0,None,1,,,0,158,158,158,466.11863750001066,,,,,,,,,,,466.10427770001115,466.11863750001066,466.11863750001066,466.3067050000245,466.3239600000088,468.11678189999657,None,1,,,468.11100669999723,000020,001,2024-10-10_14h36.52.945,cpt_test,2024.2.2,60.270881445849504,2024-10-10 14h37.12.966246 -0600,
160,X,1,x,159,159,0,x,1,0.3850607000058517,0.2514687000075355,0,159,159,159,468.1297922000231,,,,,,,,,,,468.1170900000143,468.1297922000231,468.1297922000231,468.32020760001615,468.34167980001075,470.1152409000206,x,1,0.3850607000058517,0.2514687000075355,,000020,001,2024-10-10_14h36.52.945,cpt_test,2024.2.2,60.270881445849504,2024-10-10 14h37.12.966246 -0600,
161,A,0,None,160,160,0,None,1,,,0,160,160,160,470.1284258000087,,,,,,,,,,,470.1155642000085,470.1284258000087,470.1284258000087,470.309462300007,470.34230180000304,472.1147167000163,None,1,,,,000020,001,2024-10-10_14h36.52.945,cpt_test,2024.2.2,60.270881445849504,2024-10-10 14h37.12.966246 -0600,
162,M,0,None,161,161,0,None,1,,,0,161,161,161,472.12935110001126,,,,,,,,,,,472.1151061000128,472.12935110001126,472.12935110001126,472.31314830001793,472.32786800002214,474.11301699999603,None,1,,,,000020,001,2024-10-10_14h36.52.945,cpt_test,2024.2.2,60.270881445849504,2024-10-10 14h37.12.966246 -0600,
163,X,1,x,162,162,0,x,1,0.3641037000052165,0.24976420000893995,0,162,162,162,474.1274144000199,,,,,,,,,,,474.113403299998,474.1274144000199,474.1274144000199,474.3100037999975,474.3245119000203,476.1115413000225,x,1,0.3641037000052165,0.24976420000893995,,000020,001,2024-10-10_14h36.52.945,cpt_test,2024.2.2,60.270881445849504,2024-10-10 14h37.12.966246 -0600,
164,X,1,x,163,163,0,x,1,0.4569426000234671,0.20473169998149388,0,163,163,163,476.1215902999975,,,,,,,,,,,476.11196500001824,476.1215902999975,476.1215902999975,476.3045144000207,476.3206840000057,478.115005700005,x,1,0.4569426000234671,0.20473169998149388,478.10773690001224,000020,001,2024-10-10_14h36.52.945,cpt_test,2024.2.2,60.270881445849504,2024-10-10 14h37.12.966246 -0600,
165,K,0,None,164,164,0,None,1,,,0,164,164,164,478.1290147000109,,,,,,,,,,,478.1154012000188,478.1290147000109,478.1290147000109,478.3041288999957,478.3394838999957,480.1080519000243,None,1,,,,000020,001,2024-10-10_14h36.52.945,cpt_test,2024.2.2,60.270881445849504,2024-10-10 14h37.12.966246 -0600,
166,X,1,x,165,165,0,x,1,0.34852759999921545,0.24635820000548847,0,165,165,165,480.1228386000148,,,,,,,,,,,480.10844660000294,480.1228386000148,480.1228386000148,480.3100118000002,480.3265129000065,482.10845670002163,x,1,0.34852759999921545,0.24635820000548847,,000020,001,2024-10-10_14h36.52.945,cpt_test,2024.2.2,60.270881445849504,2024-10-10 14h37.12.966246 -0600,
167,M,0,None,166,166,0,None,1,,,0,166,166,166,482.1232699000102,,,,,,,,,,,482.10886520001804,482.1232699000102,482.1232699000102,482.3161366000131,482.332559500006,484.1034137000097,None,1,,,,000020,001,2024-10-10_14h36.52.945,cpt_test,2024.2.2,60.270881445849504,2024-10-10 14h37.12.966246 -0600,
168,X,1,x,167,167,0,x,1,0.33234949997859076,0.2643547000188846,0,167,167,167,484.11650299999746,,,,,,,,,,,484.10372040001675,484.11650299999746,484.11650299999746,484.3141085000243,484.3305481999996,486.10373280002386,x,1,0.33234949997859076,0.2643547000188846,,000020,001,2024-10-10_14h36.52.945,cpt_test,2024.2.2,60.270881445849504,2024-10-10 14h37.12.966246 -0600,
169,A,0,None,168,168,0,None,1,,,0,168,168,168,486.1189119000046,,,,,,,,,,,486.1041510000068,486.1189119000046,486.1189119000046,486.3067384000169,486.3239804000186,488.1033917000168,None,1,,,,000020,001,2024-10-10_14h36.52.945,cpt_test,2024.2.2,60.270881445849504,2024-10-10 14h37.12.966246 -0600,
170,X,1,x,169,169,0,x,1,0.31287769999471493,0.2176847000082489,0,169,169,169,488.11830329999793,,,,,,,,,,,488.10381510001025,488.11830329999793,488.11830329999793,488.30892400001176,488.3258668000053,490.1164925000048,x,1,0.31287769999471493,0.2176847000082489,490.1092120000103,000020,001,2024-10-10_14h36.52.945,cpt_test,2024.2.2,60.270881445849504,2024-10-10 14h37.12.966246 -0600,
171,L,0,None,170,170,0,None,1,,,0,170,170,170,490.13068570001633,,,,,,,,,,,490.11690510000335,490.13068570001633,490.13068570001633,490.3114100000239,490.3458268000104,492.1016800000216,None,1,,,,000020,001,2024-10-10_14h36.52.945,cpt_test,2024.2.2,60.270881445849504,2024-10-10 14h37.12.966246 -0600,
172,E,0,None,171,171,0,x,0,0.24969050000072457,0.23342599999159575,0,171,171,171,492.11617860000115,,,,,,,,,,,492.1020766000147,492.11617860000115,492.11617860000115,492.3106582000037,492.32569880000665,494.1016727000242,x,0,0.24969050000072457,0.23342599999159575,,000020,001,2024-10-10_14h36.52.945,cpt_test,2024.2.2,60.270881445849504,2024-10-10 14h37.12.966246 -0600,
173,T,0,None,172,172,0,None,1,,,0,172,172,172,494.11495280000963,,,,,,,,,,,494.1020660000213,494.11495280000963,494.11495280000963,494.30643350002356,494.322753800021,496.1101770999958,None,1,,,,000020,001,2024-10-10_14h36.52.945,cpt_test,2024.2.2,60.270881445849504,2024-10-10 14h37.12.966246 -0600,
174,F,0,None,173,173,0,None,1,,,0,173,173,173,496.12308300001314,,,,,,,,,,,496.1104869999981,496.12308300001314,496.12308300001314,496.304609600018,496.3377387000073,498.1101268000202,None,1,,,,000020,001,2024-10-10_14h36.52.945,cpt_test,2024.2.2,60.270881445849504,2024-10-10 14h37.12.966246 -0600,
175,M,0,None,174,174,0,None,1,,,0,174,174,174,498.1249957999971,,,,,,,,,,,498.1105286999955,498.1249957999971,498.1249957999971,498.3067803000158,498.33684940001694,500.1007915000082,None,1,,,,000020,001,2024-10-10_14h36.52.945,cpt_test,2024.2.2,60.270881445849504,2024-10-10 14h37.12.966246 -0600,
176,Q,0,None,175,175,0,None,1,,,0,175,175,175,500.1133749000146,,,,,,,,,,,500.101097900013,500.1133749000146,500.1133749000146,500.30146340001374,500.31758880001144,502.1067706000176,None,1,,,,000020,001,2024-10-10_14h36.52.945,cpt_test,2024.2.2,60.270881445849504,2024-10-10 14h37.12.966246 -0600,
177,M,0,None,176,176,0,None,1,,,0,176,176,176,502.12156580001465,,,,,,,,,,,502.10715110000456,502.12156580001465,502.12156580001465,502.2998423000099,502.33257890000823,504.1038572000107,None,1,,,,000020,001,2024-10-10_14h36.52.945,cpt_test,2024.2.2,60.270881445849504,2024-10-10 14h37.12.966246 -0600,
178,X,1,x,177,177,0,x,1,0.3569912000093609,0.33524559999932535,0,177,177,177,504.11709630000405,,,,,,,,,,,504.10416980000446,504.11709630000405,504.11709630000405,504.31461880001007,504.33111710002413,506.10201410000445,x,1,0.3569912000093609,0.33524559999932535,,000020,001,2024-10-10_14h36.52.945,cpt_test,2024.2.2,60.270881445849504,2024-10-10 14h37.12.966246 -0600,
179,V,0,None,178,178,0,None,1,,,0,178,178,178,506.1150808999955,,,,,,,,,,,506.1023337000224,506.1150808999955,506.1150808999955,506.313135400007,506.3292784000223,508.1025283000199,None,1,,,,000020,001,2024-10-10_14h36.52.945,cpt_test,2024.2.2,60.270881445849504,2024-10-10 14h37.12.966246 -0600,
180,M,0,None,179,179,0,None,1,,,0,179,179,179,508.1170511000091,,,,,,,,,,,508.1029569999955,508.1170511000091,508.1170511000091,508.31137880001916,508.32759530001204,510.1152408000198,None,1,,,,000020,001,2024-10-10_14h36.52.945,cpt_test,2024.2.2,60.270881445849504,2024-10-10 14h37.12.966246 -0600,
181,P,0,None,180,180,0,None,1,,,0,180,180,180,510.1282859000203,,,,,,,,,,,510.1155484000046,510.1282859000203,510.1282859000203,510.30977240001084,510.342619300005,512.1136055999959,None,1,,,,000020,001,2024-10-10_14h36.52.945,cpt_test,2024.2.2,60.270881445849504,2024-10-10 14h37.12.966246 -0600,
182,K,0,None,181,181,0,None,1,,,0,181,181,181,512.1270764000074,,,,,,,,,,,512.1139193999988,512.1270764000074,512.1270764000074,512.3079426000186,512.3410291000037,514.114780200005,None,1,,,514.1073361000163,000020,001,2024-10-10_14h36.52.945,cpt_test,2024.2.2,60.270881445849504,2024-10-10 14h37.12.966246 -0600,
183,V,0,None,182,182,0,None,1,,,0,182,182,182,514.1287537000026,,,,,,,,,,,514.1151647000224,514.1287537000026,514.1287537000026,514.3062761000183,514.3394290000142,516.1129506000143,None,1,,,,000020,001,2024-10-10_14h36.52.945,cpt_test,2024.2.2,60.270881445849504,2024-10-10 14h37.12.966246 -0600,
184,G,0,None,183,183,0,None,1,,,0,183,183,183,516.1272459000174,,,,,,,,,,,516.113364400022,516.1272459000174,516.1272459000174,516.3063398000086,516.3403187000076,518.1090858000098,None,1,,,,000020,001,2024-10-10_14h36.52.945,cpt_test,2024.2.2,60.270881445849504,2024-10-10 14h37.12.966246 -0600,
185,L,0,None,184,184,0,None,1,,,0,184,184,184,518.1217566000123,,,,,,,,,,,518.1094064000063,518.1217566000123,518.1217566000123,518.3031951000157,518.3360899999971,520.1075053999957,None,1,,,,000020,001,2024-10-10_14h36.52.945,cpt_test,2024.2.2,60.270881445849504,2024-10-10 14h37.12.966246 -0600,
186,Q,0,None,185,185,0,None,1,,,0,185,185,185,520.1206092000066,,,,,,,,,,,520.1078096000128,520.1206092000066,520.1206092000066,520.3016555000213,520.3346013000119,522.1055651000061,None,1,,,,000020,001,2024-10-10_14h36.52.945,cpt_test,2024.2.2,60.270881445849504,2024-10-10 14h37.12.966246 -0600,
187,N,0,None,186,186,0,None,1,,,0,186,186,186,522.1185107000056,,,,,,,,,,,522.1058745000046,522.1185107000056,522.1185107000056,522.3021299999964,522.3188072000048,524.1061249000195,None,1,,,,000020,001,2024-10-10_14h36.52.945,cpt_test,2024.2.2,60.270881445849504,2024-10-10 14h37.12.966246 -0600,
188,K,0,None,187,187,0,None,1,,,0,187,187,187,524.1239649000054,,,,,,,,,,,524.1067017000169,524.1239649000054,524.1239649000054,524.3106340000231,524.3253423999995,526.1022805999964,None,1,,,,000020,001,2024-10-10_14h36.52.945,cpt_test,2024.2.2,60.270881445849504,2024-10-10 14h37.12.966246 -0600,
189,C,0,None,188,188,0,None,1,,,0,188,188,188,526.1133343999973,,,,,,,,,,,526.1024699000118,526.1133343999973,526.1133343999973,526.3128728000156,526.3128728000156,528.1171496000024,None,1,,,,000020,001,2024-10-10_14h36.52.945,cpt_test,2024.2.2,60.270881445849504,2024-10-10 14h37.12.966246 -0600,
190,Z,0,None,189,189,0,None,1,,,0,189,189,189,528.1303172000044,,,,,,,,,,,528.1174726000172,528.1303172000044,528.1303172000044,528.311644100002,528.3444700000109,530.1158649999998,None,1,,,,000020,001,2024-10-10_14h36.52.945,cpt_test,2024.2.2,60.270881445849504,2024-10-10 14h37.12.966246 -0600,
191,I,0,None,190,190,0,None,1,,,0,190,190,190,530.1289615000132,,,,,,,,,,,530.1161830000055,530.1289615000132,530.1289615000132,530.309699800011,530.3429879000178,532.1137818999996,None,1,,,,000020,001,2024-10-10_14h36.52.945,cpt_test,2024.2.2,60.270881445849504,2024-10-10 14h37.12.966246 -0600,
192,J,0,None,191,191,0,None,1,,,0,191,191,191,532.1276148000034,,,,,,,,,,,532.1140883000044,532.1276148000034,532.1276148000034,532.3083230000047,532.3432558000204,534.1137922000198,None,1,,,,000020,001,2024-10-10_14h36.52.945,cpt_test,2024.2.2,60.270881445849504,2024-10-10 14h37.12.966246 -0600,
193,X,1,x,192,192,0,x,1,0.38768300000810996,0.2849149999965448,0,192,192,192,534.1285225000174,,,,,,,,,,,534.1141716999991,534.1285225000174,534.1285225000174,534.3193909999973,534.3365567000001,536.1141749000235,x,1,0.38768300000810996,0.2849149999965448,,000020,001,2024-10-10_14h36.52.945,cpt_test,2024.2.2,60.270881445849504,2024-10-10 14h37.12.966246 -0600,
194,E,0,None,193,193,0,None,1,,,0,193,193,193,536.1289654000138,,,,,,,,,,,536.1145881999983,536.1289654000138,536.1289654000138,536.3156705000147,536.3304628000187,538.1122520000208,None,1,,,,000020,001,2024-10-10_14h36.52.945,cpt_test,2024.2.2,60.270881445849504,2024-10-10 14h37.12.966246 -0600,
195,X,1,x,194,194,0,x,1,0.46023840000270866,0.310507799993502,0,194,194,194,538.1277467000182,,,,,,,,,,,538.1126727000228,538.1277467000182,538.1277467000182,538.3044515000074,538.3393931000028,540.1072887000046,x,1,0.46023840000270866,0.310507799993502,,000020,001,2024-10-10_14h36.52.945,cpt_test,2024.2.2,60.270881445849504,2024-10-10 14h37.12.966246 -0600,
196,X,1,x,195,195,0,x,1,0.37313650001306087,0.26569439997547306,0,195,195,195,540.1186155000178,,,,,,,,,,,540.1076084000233,540.1186155000178,540.1186155000178,540.3018173000019,540.3181392000115,542.107104900002,x,1,0.37313650001306087,0.26569439997547306,,000020,001,2024-10-10_14h36.52.945,cpt_test,2024.2.2,60.270881445849504,2024-10-10 14h37.12.966246 -0600,
197,O,0,None,196,196,0,None,1,,,0,196,196,196,542.1216974999988,,,,,,,,,,,542.1075052000233,542.1216974999988,542.1216974999988,542.310285900021,542.3273505000107,544.1104630000191,None,1,,,,000020,001,2024-10-10_14h36.52.945,cpt_test,2024.2.2,60.270881445849504,2024-10-10 14h37.12.966246 -0600,
198,X,1,x,197,197,0,x,1,0.5528717999986839,0.4084460999874864,0,197,197,197,544.125194000022,,,,,,,,,,,544.1108576999977,544.125194000022,544.125194000022,544.3149122000032,544.3313222000143,546.1024590000161,x,1,0.5528717999986839,0.4084460999874864,,000020,001,2024-10-10_14h36.52.945,cpt_test,2024.2.2,60.270881445849504,2024-10-10 14h37.12.966246 -0600,
199,T,0,None,198,198,0,None,1,,,0,198,198,198,546.1155034000112,,,,,,,,,,,546.1027824000048,546.1155034000112,546.1155034000112,546.3133205000195,546.3299293000018,548.1178746000223,None,1,,,,000020,001,2024-10-10_14h36.52.945,cpt_test,2024.2.2,60.270881445849504,2024-10-10 14h37.12.966246 -0600,
200,X,1,x,199,199,0,x,1,0.3784200000227429,0.3057478999835439,0,199,199,199,548.1312796999991,,,,,,,,,,,548.1182038999978,548.1312796999991,548.1312796999991,548.3116734000214,548.3447395999974,550.1156952000165,x,1,0.3784200000227429,0.3057478999835439,,000020,001,2024-10-10_14h36.52.945,cpt_test,2024.2.2,60.270881445849504,2024-10-10 14h37.12.966246 -0600,
201,L,0,None,200,200,0,None,1,,,0,200,200,200,550.1286990000226,,,,,,,,,,,550.116019500012,550.1286990000226,550.1286990000226,550.3117217000108,550.3289133000071,552.1168954000168,None,1,,,,000020,001,2024-10-10_14h36.52.945,cpt_test,2024.2.2,60.270881445849504,2024-10-10 14h37.12.966246 -0600,
