Number,letra,target,correctas,thisN,thisTrialN,thisRepN,respuesta.keys,respuesta.corr,respuesta.rt,respuesta.duration,trials.thisRepN,trials.thisTrialN,trials.thisN,trials.thisIndex,thisRow.t,notes,Ojos_abiertos.started,Abiertos.started,Ojos_abiertos.stopped,Ojos_cerrados.started,Cerrados.started,Cerrados.stopped,alert.started,Ojos_cerrados.stopped,Test.started,prueba.started,respuesta.started,text.started,prueba.stopped,Test.stopped,trials.respuesta.keys,trials.respuesta.corr,text.stopped,trials.respuesta.rt,trials.respuesta.duration,participant,session,date,expName,psychopyVersion,frameRate,expStart,
,,,,,,,,,,,,,,,,,0.019421200006036088,0.029069499985780567,90.00186640000902,,,,,,,,,,,,,,,,,000019,001,2024-10-10_14h11.32.036,cpt_test,2024.2.2,60.05764332101574,2024-10-10 14h14.22.682157 -0600,
,,,,,,,,,,,,,,,,,,,,90.00381779999589,90.01416389999213,150.01316279999446,150.01339366665732,150.1023270000005,,,,,,,,,,,,000019,001,2024-10-10_14h11.32.036,cpt_test,2024.2.2,60.05764332101574,2024-10-10 14h14.22.682157 -0600,
1,A,0,None,0,0,0,None,1,,,0,0,0,0,150.36747070000274,,,,,,,,,,150.16140479999012,150.36747070000274,150.36747070000274,150.38601849999395,150.57332989998395,152.11716980001074,None,1,,,,000019,001,2024-10-10_14h11.32.036,cpt_test,2024.2.2,60.05764332101574,2024-10-10 14h14.22.682157 -0600,
2,R,0,None,1,1,0,None,1,,,0,1,1,1,152.14157459998387,,,,,,,,,,152.11748290000833,152.14157459998387,152.14157459998387,152.31169659999432,152.34471639999538,154.11591910000425,None,1,,,,000019,001,2024-10-10_14h11.32.036,cpt_test,2024.2.2,60.05764332101574,2024-10-10 14h14.22.682157 -0600,
3,L,0,None,2,2,0,x,0,0.0716899000108242,0.13444619998335838,0,2,2,2,154.14807769999607,,,,,,,,,,154.11625339998864,154.14807769999607,154.14807769999607,154.3056147999887,154.351576999994,156.11432709998917,x,0,156.10840699999244,0.0716899000108242,0.13444619998335838,000019,001,2024-10-10_14h11.32.036,cpt_test,2024.2.2,60.05764332101574,2024-10-10 14h14.22.682157 -0600,
4,X,1,x,3,3,0,None,0,,,0,3,3,3,156.14418939998723,,,,,,,,,,156.1146718999953,156.14418939998723,156.14418939998723,156.31012449998525,156.35804170000483,158.11227179999696,None,0,,,,000019,001,2024-10-10_14h11.32.036,cpt_test,2024.2.2,60.05764332101574,2024-10-10 14h14.22.682157 -0600,
5,O,0,None,4,4,0,None,1,,,0,4,4,4,158.13958029999048,,,,,,,,,,158.1125977000047,158.13958029999048,158.13958029999048,158.30710669999826,158.33971189998556,160.11118519998854,None,1,,,,000019,001,2024-10-10_14h11.32.036,cpt_test,2024.2.2,60.05764332101574,2024-10-10 14h14.22.682157 -0600,
6,G,0,None,5,5,0,None,1,,,0,5,5,5,160.13485249999212,,,,,,,,,,160.11151449999306,160.13485249999212,160.13485249999212,160.3049364000035,160.33785409998382,162.1059558999841,None,1,,,,000019,001,2024-10-10_14h11.32.036,cpt_test,2024.2.2,60.05764332101574,2024-10-10 14h14.22.682157 -0600,
7,P,0,None,6,6,0,x,0,0.2907620999903884,0.18148260001908056,0,6,6,6,162.12524850000045,,,,,,,,,,162.1061512999877,162.12524850000045,162.12524850000045,162.3033957000007,162.3361300000106,164.1073641999974,x,0,,0.2907620999903884,0.18148260001908056,000019,001,2024-10-10_14h11.32.036,cpt_test,2024.2.2,60.05764332101574,2024-10-10 14h14.22.682157 -0600,
8,X,1,x,7,7,0,x,1,0.30330649999086745,0.1629092000075616,0,7,7,7,164.12033199999132,,,,,,,,,,164.10770299998694,164.12033199999132,164.12033199999132,164.3015366999898,164.33453009999357,166.10554680001223,x,1,,0.30330649999086745,0.1629092000075616,000019,001,2024-10-10_14h11.32.036,cpt_test,2024.2.2,60.05764332101574,2024-10-10 14h14.22.682157 -0600,
9,X,1,x,8,8,0,None,0,,,0,8,8,8,166.11673509998946,,,,,,,,,,166.10587679999298,166.11673509998946,166.11673509998946,166.31635430001188,166.31635430001188,168.10414099998889,None,0,,,,000019,001,2024-10-10_14h11.32.036,cpt_test,2024.2.2,60.05764332101574,2024-10-10 14h14.22.682157 -0600,
10,Z,0,None,9,9,0,x,0,0.19981999997980893,0.14020399999571964,0,9,9,9,168.12870040000416,,,,,,,,,,168.10444769999594,168.12870040000416,168.12870040000416,168.31496240000706,168.33137090000673,170.1183122000075,x,0,,0.19981999997980893,0.14020399999571964,000019,001,2024-10-10_14h11.32.036,cpt_test,2024.2.2,60.05764332101574,2024-10-10 14h14.22.682157 -0600,
11,I,0,None,10,10,0,x,0,0.23365409998223186,0.16235250001773238,0,10,10,10,170.14198449999094,,,,,,,,,,170.1185986000055,170.14198449999094,170.14198449999094,170.3132037000032,170.34642349998467,172.1173698999919,x,0,,0.23365409998223186,0.16235250001773238,000019,001,2024-10-10_14h11.32.036,cpt_test,2024.2.2,60.05764332101574,2024-10-10 14h14.22.682157 -0600,
12,D,0,None,11,11,0,x,0,0.24091319998842664,0.14515180001035333,0,11,11,11,172.14663500001188,,,,,,,,,,172.11771799999406,172.14663500001188,172.14663500001188,172.31189519999316,172.3613306999905,174.11587040001177,x,0,,0.24091319998842664,0.14515180001035333,000019,001,2024-10-10_14h11.32.036,cpt_test,2024.2.2,60.05764332101574,2024-10-10 14h14.22.682157 -0600,
13,X,1,x,12,12,0,None,0,,,0,12,12,12,174.12888679999742,,,,,,,,,,174.1162314999965,174.12888679999742,174.12888679999742,174.31001899999683,174.3430248000077,176.1138718999864,None,0,,,,000019,001,2024-10-10_14h11.32.036,cpt_test,2024.2.2,60.05764332101574,2024-10-10 14h14.22.682157 -0600,
14,Y,0,None,13,13,0,None,1,,,0,13,13,13,176.1402051000041,,,,,,,,,,176.1141818999895,176.1402051000041,176.1402051000041,176.30839960000594,176.34157960000448,178.1117862999963,None,1,,,,000019,001,2024-10-10_14h11.32.036,cpt_test,2024.2.2,60.05764332101574,2024-10-10 14h14.22.682157 -0600,
15,X,1,x,14,14,0,x,1,0.4006144999875687,0.16754280001623556,0,14,14,14,178.12425039999653,,,,,,,,,,178.11209780001082,178.12425039999653,178.12425039999653,178.3069404999842,178.32338469999377,180.1109720999957,x,1,,0.4006144999875687,0.16754280001623556,000019,001,2024-10-10_14h11.32.036,cpt_test,2024.2.2,60.05764332101574,2024-10-10 14h14.22.682157 -0600,
16,X,1,x,15,15,0,x,1,0.40206019999459386,0.11697269999422133,0,15,15,15,180.12232180000865,,,,,,,,,,180.1113161999965,180.12232180000865,180.12232180000865,180.30544910000754,180.32186060000095,182.10912810001173,x,1,,0.40206019999459386,0.11697269999422133,000019,001,2024-10-10_14h11.32.036,cpt_test,2024.2.2,60.05764332101574,2024-10-10 14h14.22.682157 -0600,
17,A,0,None,16,16,0,None,1,,,0,16,16,16,182.12180429999717,,,,,,,,,,182.10947170000873,182.12180429999717,182.12180429999717,182.30383739998797,182.33677789999638,184.1076841999893,None,1,,,,000019,001,2024-10-10_14h11.32.036,cpt_test,2024.2.2,60.05764332101574,2024-10-10 14h14.22.682157 -0600,
18,J,0,None,17,17,0,None,1,,,0,17,17,17,184.1368048999866,,,,,,,,,,184.10801830000128,184.1368048999866,184.1368048999866,184.30213090000325,184.35181669998565,186.1060620000062,None,1,,,,000019,001,2024-10-10_14h11.32.036,cpt_test,2024.2.2,60.05764332101574,2024-10-10 14h14.22.682157 -0600,
19,G,0,None,18,18,0,None,1,,,0,18,18,18,186.11873089999426,,,,,,,,,,186.1063726999855,186.11873089999426,186.11873089999426,186.30050899999333,186.33335530001204,188.1056297000032,None,1,,,,000019,001,2024-10-10_14h11.32.036,cpt_test,2024.2.2,60.05764332101574,2024-10-10 14h14.22.682157 -0600,
20,X,1,x,19,19,0,x,1,0.40064959999290295,0.1266866000078153,0,19,19,19,188.1197581999877,,,,,,,,,,188.10602879998623,188.1197581999877,188.1197581999877,188.30695170001127,188.32392229998368,190.10280190000776,x,1,,0.40064959999290295,0.1266866000078153,000019,001,2024-10-10_14h11.32.036,cpt_test,2024.2.2,60.05764332101574,2024-10-10 14h14.22.682157 -0600,
21,T,0,None,20,20,0,None,1,,,0,20,20,20,190.1322336999874,,,,,,,,,,190.10312759998487,190.1322336999874,190.1322336999874,190.31392929999856,190.3467595000111,192.11054639998474,None,1,,,,000019,001,2024-10-10_14h11.32.036,cpt_test,2024.2.2,60.05764332101574,2024-10-10 14h14.22.682157 -0600,
22,S,0,None,21,21,0,None,1,,,0,21,21,21,192.1480603000091,,,,,,,,,,192.11109920000308,192.1480603000091,192.1480603000091,192.31228310000733,192.36186269999598,194.11605129999225,None,1,,,,000019,001,2024-10-10_14h11.32.036,cpt_test,2024.2.2,60.05764332101574,2024-10-10 14h14.22.682157 -0600,
23,X,1,x,22,22,0,x,1,0.408029100013664,0.12986699998145923,0,22,22,22,194.12858689998393,,,,,,,,,,194.11635840000235,194.12858689998393,194.12858689998393,194.31064680000418,194.34346450000885,196.11442800000077,x,1,,0.408029100013664,0.12986699998145923,000019,001,2024-10-10_14h11.32.036,cpt_test,2024.2.2,60.05764332101574,2024-10-10 14h14.22.682157 -0600,
24,S,0,None,23,23,0,None,1,,,0,23,23,23,196.12730739999097,,,,,,,,,,196.1147704999894,196.12730739999097,196.12730739999097,196.30875070000184,196.34181209999952,198.11270959998365,None,1,,,,000019,001,2024-10-10_14h11.32.036,cpt_test,2024.2.2,60.05764332101574,2024-10-10 14h14.22.682157 -0600,
25,G,0,None,24,24,0,None,1,,,0,24,24,24,198.12553469999693,,,,,,,,,,198.1130628999963,198.12553469999693,198.12553469999693,198.30879340000683,198.32534640000085,200.1124903000018,None,1,,,,000019,001,2024-10-10_14h11.32.036,cpt_test,2024.2.2,60.05764332101574,2024-10-10 14h14.22.682157 -0600,
26,O,0,None,25,25,0,None,1,,,0,25,25,25,200.12645650000195,,,,,,,,,,200.11287549999543,200.12645650000195,200.12645650000195,200.30573339998955,200.33862829999998,202.10955749999266,None,1,,,,000019,001,2024-10-10_14h11.32.036,cpt_test,2024.2.2,60.05764332101574,2024-10-10 14h14.22.682157 -0600,
27,P,0,None,26,26,0,None,1,,,0,26,26,26,202.12229020000086,,,,,,,,,,202.10988619999262,202.12229020000086,202.12229020000086,202.30513940000674,202.32243140001083,204.10776620000252,None,1,,,,000019,001,2024-10-10_14h11.32.036,cpt_test,2024.2.2,60.05764332101574,2024-10-10 14h14.22.682157 -0600,
28,Z,0,None,27,27,0,None,1,,,0,27,27,27,204.1204704999982,,,,,,,,,,204.1080961000116,204.1204704999982,204.1204704999982,204.3022493000026,204.33528569998452,206.10631309999735,None,1,,,,000019,001,2024-10-10_14h11.32.036,cpt_test,2024.2.2,60.05764332101574,2024-10-10 14h14.22.682157 -0600,
29,X,1,x,28,28,0,x,1,0.37604339999961667,0.10577510000439361,0,28,28,28,206.11900780000724,,,,,,,,,,206.10663540000678,206.11900780000724,206.11900780000724,206.30074859998422,206.33363810001174,208.10582520000753,x,1,,0.37604339999961667,0.10577510000439361,000019,001,2024-10-10_14h11.32.036,cpt_test,2024.2.2,60.05764332101574,2024-10-10 14h14.22.682157 -0600,
30,I,0,None,29,29,0,None,1,,,0,29,29,29,208.11981119998381,,,,,,,,,,208.10624419999658,208.11981119998381,208.11981119998381,208.30132009999943,208.33209320000606,210.10267570000724,None,1,,,,000019,001,2024-10-10_14h11.32.036,cpt_test,2024.2.2,60.05764332101574,2024-10-10 14h14.22.682157 -0600,
31,F,0,None,30,30,0,None,1,,,0,30,30,30,210.13205970000126,,,,,,,,,,210.10299159999704,210.13205970000126,210.13205970000126,210.31388410000363,210.34689179999987,212.10190059998422,None,1,,,,000019,001,2024-10-10_14h11.32.036,cpt_test,2024.2.2,60.05764332101574,2024-10-10 14h14.22.682157 -0600,
32,M,0,None,31,31,0,None,1,,,0,31,31,31,212.12501170000178,,,,,,,,,,212.1020881999866,212.12501170000178,212.12501170000178,212.3125396000105,212.32881440001074,214.11649529999704,None,1,,,,000019,001,2024-10-10_14h11.32.036,cpt_test,2024.2.2,60.05764332101574,2024-10-10 14h14.22.682157 -0600,
33,T,0,None,32,32,0,None,1,,,0,32,32,32,214.12900859999354,,,,,,,,,,214.11681849998422,214.12900859999354,214.12900859999354,214.31055399999605,214.3435688999889,216.1148506999889,None,1,,,,000019,001,2024-10-10_14h11.32.036,cpt_test,2024.2.2,60.05764332101574,2024-10-10 14h14.22.682157 -0600,
34,A,0,None,33,33,0,None,1,,,0,33,33,33,216.12766810000176,,,,,,,,,,216.11518049999722,216.12766810000176,216.12766810000176,216.31013570001232,216.32661019999068,218.11315170000307,None,1,,,,000019,001,2024-10-10_14h11.32.036,cpt_test,2024.2.2,60.05764332101574,2024-10-10 14h14.22.682157 -0600,
35,E,0,None,34,34,0,None,1,,,0,34,34,34,218.14279409998562,,,,,,,,,,218.1134546000103,218.14279409998562,218.14279409998562,218.3083127999853,218.357276499999,220.11175280000316,None,1,,,,000019,001,2024-10-10_14h11.32.036,cpt_test,2024.2.2,60.05764332101574,2024-10-10 14h14.22.682157 -0600,
36,X,1,x,35,35,0,x,1,0.49975330001325347,0.11615980000351556,0,35,35,35,220.1244396000111,,,,,,,,,,220.11207309999736,220.1244396000111,220.1244396000111,220.3058183999965,220.33881159999873,222.10993889998645,x,1,222.10401260000071,0.49975330001325347,0.11615980000351556,000019,001,2024-10-10_14h11.32.036,cpt_test,2024.2.2,60.05764332101574,2024-10-10 14h14.22.682157 -0600,
37,A,0,None,36,36,0,None,1,,,0,36,36,36,222.12241899999208,,,,,,,,,,222.11028049999732,222.12241899999208,222.12241899999208,222.30427620001137,222.33727389998967,224.10817590000806,None,1,,,,000019,001,2024-10-10_14h11.32.036,cpt_test,2024.2.2,60.05764332101574,2024-10-10 14h14.22.682157 -0600,
38,S,0,None,37,37,0,None,1,,,0,37,37,37,224.12081160000525,,,,,,,,,,224.1084922000009,224.12081160000525,224.12081160000525,224.32476109999698,224.34642759998678,226.106371700007,None,1,,,,000019,001,2024-10-10_14h11.32.036,cpt_test,2024.2.2,60.05764332101574,2024-10-10 14h14.22.682157 -0600,
39,U,0,None,38,38,0,None,1,,,0,38,38,38,226.13907869998366,,,,,,,,,,226.1067020999908,226.13907869998366,226.13907869998366,226.30187960001058,226.3505465000053,228.10468749998836,None,1,,,,000019,001,2024-10-10_14h11.32.036,cpt_test,2024.2.2,60.05764332101574,2024-10-10 14h14.22.682157 -0600,
40,U,0,None,39,39,0,None,1,,,0,39,39,39,228.11593219998758,,,,,,,,,,228.1049953000038,228.11593219998758,228.11593219998758,228.30249070000718,228.31904470000882,230.10428649999085,None,1,,,,000019,001,2024-10-10_14h11.32.036,cpt_test,2024.2.2,60.05764332101574,2024-10-10 14h14.22.682157 -0600,
41,Q,0,None,40,40,0,None,1,,,0,40,40,40,230.14158570001018,,,,,,,,,,230.1046706000052,230.14158570001018,230.14158570001018,230.31432060000952,230.34707829999388,232.1033163999964,None,1,,,,000019,001,2024-10-10_14h11.32.036,cpt_test,2024.2.2,60.05764332101574,2024-10-10 14h14.22.682157 -0600,
42,E,0,None,41,41,0,None,1,,,0,41,41,41,232.11731719999807,,,,,,,,,,232.103709899995,232.11731719999807,232.11731719999807,232.31290920000174,232.32908600001247,234.11795869999332,None,1,,,,000019,001,2024-10-10_14h11.32.036,cpt_test,2024.2.2,60.05764332101574,2024-10-10 14h14.22.682157 -0600,
43,B,0,None,42,42,0,None,1,,,0,42,42,42,234.15508329999284,,,,,,,,,,234.11837859998923,234.15508329999284,234.15508329999284,234.31083840000792,234.36066519998712,236.1162333000102,None,1,,,,000019,001,2024-10-10_14h11.32.036,cpt_test,2024.2.2,60.05764332101574,2024-10-10 14h14.22.682157 -0600,
44,O,0,None,43,43,0,None,1,,,0,43,43,43,236.13059300000896,,,,,,,,,,236.11664269998437,236.13059300000896,236.13059300000896,236.31745319999754,236.33139549999032,238.11329979999573,None,1,,,,000019,001,2024-10-10_14h11.32.036,cpt_test,2024.2.2,60.05764332101574,2024-10-10 14h14.22.682157 -0600,
45,E,0,None,44,44,0,None,1,,,0,44,44,44,238.1264460000093,,,,,,,,,,238.11363290000008,238.1264460000093,238.1264460000093,238.3118536999973,238.32653469999786,240.11128909999388,None,1,,,,000019,001,2024-10-10_14h11.32.036,cpt_test,2024.2.2,60.05764332101574,2024-10-10 14h14.22.682157 -0600,
46,F,0,None,45,45,0,None,1,,,0,45,45,45,240.12294979998842,,,,,,,,,,240.11147669999627,240.12294979998842,240.12294979998842,240.30595229999744,240.3224319999863,242.11001050000777,None,1,,,,000019,001,2024-10-10_14h11.32.036,cpt_test,2024.2.2,60.05764332101574,2024-10-10 14h14.22.682157 -0600,
47,V,0,None,46,46,0,None,1,,,0,46,46,46,242.14012739999453,,,,,,,,,,242.11032249999698,242.14012739999453,242.14012739999453,242.3041755000013,242.3538993000111,244.1081625999941,None,1,,,,000019,001,2024-10-10_14h11.32.036,cpt_test,2024.2.2,60.05764332101574,2024-10-10 14h14.22.682157 -0600,
48,X,1,x,47,47,0,x,1,0.5359740999992937,0.1267202000017278,0,47,47,47,244.12073970001074,,,,,,,,,,244.10846829999355,244.12073970001074,244.12073970001074,244.30261049998808,244.33583540000836,246.10686030000215,x,1,,0.5359740999992937,0.1267202000017278,000019,001,2024-10-10_14h11.32.036,cpt_test,2024.2.2,60.05764332101574,2024-10-10 14h14.22.682157 -0600,
49,X,1,x,48,48,0,x,1,0.41247139999177307,0.11346469999989495,0,48,48,48,246.11789970000973,,,,,,,,,,246.10720800000126,246.11789970000973,246.11789970000973,246.30096630001208,246.3173938000109,248.1063385999878,x,1,,0.41247139999177307,0.11346469999989495,000019,001,2024-10-10_14h11.32.036,cpt_test,2024.2.2,60.05764332101574,2024-10-10 14h14.22.682157 -0600,
50,C,0,None,49,49,0,None,1,,,0,49,49,49,248.14189080000506,,,,,,,,,,248.10675559999072,248.14189080000506,248.14189080000506,248.29969549999805,248.34906069998397,250.10336750000715,None,1,,,,000019,001,2024-10-10_14h11.32.036,cpt_test,2024.2.2,60.05764332101574,2024-10-10 14h14.22.682157 -0600,
51,M,0,None,50,50,0,None,1,,,0,50,50,50,250.11615710001206,,,,,,,,,,250.10370030000922,250.11615710001206,250.11615710001206,250.3145918000082,250.33064460000605,252.10801379999612,None,1,,,,000019,001,2024-10-10_14h11.32.036,cpt_test,2024.2.2,60.05764332101574,2024-10-10 14h14.22.682157 -0600,
52,D,0,None,51,51,0,None,1,,,0,51,51,51,252.12065979998442,,,,,,,,,,252.10831350000808,252.12065979998442,252.12065979998442,252.31283589999657,252.3289902000106,254.11790300000575,None,1,,,,000019,001,2024-10-10_14h11.32.036,cpt_test,2024.2.2,60.05764332101574,2024-10-10 14h14.22.682157 -0600,
53,X,1,x,52,52,0,x,1,0.4127827000047546,0.11598519998369738,0,52,52,52,254.13185360000352,,,,,,,,,,254.11839129999862,254.13185360000352,254.13185360000352,254.3111052000022,254.34414810000453,256.1164080000017,x,1,,0.4127827000047546,0.11598519998369738,000019,001,2024-10-10_14h11.32.036,cpt_test,2024.2.2,60.05764332101574,2024-10-10 14h14.22.682157 -0600,
54,K,0,None,53,53,0,None,1,,,0,53,53,53,256.14524700000766,,,,,,,,,,256.1168141000089,256.14524700000766,256.14524700000766,256.3093577999971,256.3589747000078,258.11345549998805,None,1,,,,000019,001,2024-10-10_14h11.32.036,cpt_test,2024.2.2,60.05764332101574,2024-10-10 14h14.22.682157 -0600,
55,X,1,x,54,54,0,x,1,0.4572551999881398,0.1313963999855332,0,54,54,54,258.12600170000223,,,,,,,,,,258.1137818999996,258.12600170000223,258.12600170000223,258.30788680000114,258.35102289999486,260.1119902000064,x,1,,0.4572551999881398,0.1313963999855332,000019,001,2024-10-10_14h11.32.036,cpt_test,2024.2.2,60.05764332101574,2024-10-10 14h14.22.682157 -0600,
56,N,0,None,55,55,0,None,1,,,0,55,55,55,260.1418657999893,,,,,,,,,,260.1123247999931,260.1418657999893,260.1418657999893,260.30611320000025,260.35568360000616,262.1117869000009,None,1,,,,000019,001,2024-10-10_14h11.32.036,cpt_test,2024.2.2,60.05764332101574,2024-10-10 14h14.22.682157 -0600,
57,M,0,None,56,56,0,None,1,,,0,56,56,56,262.12547800000175,,,,,,,,,,262.1121709999861,262.12547800000175,262.12547800000175,262.304527100001,262.33758520000265,264.1083401000069,None,1,,,,000019,001,2024-10-10_14h11.32.036,cpt_test,2024.2.2,60.05764332101574,2024-10-10 14h14.22.682157 -0600,
58,X,1,x,57,57,0,x,1,0.4284378000011202,0.18921890002093278,0,57,57,57,264.12436469999375,,,,,,,,,,264.1088977000036,264.12436469999375,264.12436469999375,264.302734900004,264.33611750000273,266.1066891000082,x,1,,0.4284378000011202,0.18921890002093278,000019,001,2024-10-10_14h11.32.036,cpt_test,2024.2.2,60.05764332101574,2024-10-10 14h14.22.682157 -0600,
59,F,0,None,58,58,0,None,1,,,0,58,58,58,266.119346499996,,,,,,,,,,266.10700910000014,266.119346499996,266.119346499996,266.301009399991,266.334174299991,268.1051143000077,None,1,,,,000019,001,2024-10-10_14h11.32.036,cpt_test,2024.2.2,60.05764332101574,2024-10-10 14h14.22.682157 -0600,
60,A,0,None,59,59,0,None,1,,,0,59,59,59,268.11763580000843,,,,,,,,,,268.10541509999894,268.11763580000843,268.11763580000843,268.299672299996,268.3324629999988,270.103320299997,None,1,,,,000019,001,2024-10-10_14h11.32.036,cpt_test,2024.2.2,60.05764332101574,2024-10-10 14h14.22.682157 -0600,
61,X,1,x,60,60,0,x,1,0.3748479000059888,0.12146299998858012,0,60,60,60,270.1160555999959,,,,,,,,,,270.1036218999943,270.1160555999959,270.1160555999959,270.31456860000617,270.33085830000346,272.1018791999959,x,1,,0.3748479000059888,0.12146299998858012,000019,001,2024-10-10_14h11.32.036,cpt_test,2024.2.2,60.05764332101574,2024-10-10 14h14.22.682157 -0600,
62,V,0,None,61,61,0,None,1,,,0,61,61,61,272.11477789998753,,,,,,,,,,272.10220039999695,272.11477789998753,272.11477789998753,272.3130233999982,272.32956990000093,274.1015369000088,None,1,,,,000019,001,2024-10-10_14h11.32.036,cpt_test,2024.2.2,60.05764332101574,2024-10-10 14h14.22.682157 -0600,
63,U,0,None,62,62,0,None,1,,,0,62,62,62,274.11582879998605,,,,,,,,,,274.1019173999957,274.11582879998605,274.11582879998605,274.31132420001086,274.327589499997,276.11489969998365,None,1,,,,000019,001,2024-10-10_14h11.32.036,cpt_test,2024.2.2,60.05764332101574,2024-10-10 14h14.22.682157 -0600,
64,M,0,None,63,63,0,None,1,,,0,63,63,63,276.12751829999615,,,,,,,,,,276.11521150000044,276.12751829999615,276.12751829999615,276.3002748999861,276.33005749998847,278.1158196000033,None,1,278.10758839998743,,,000019,001,2024-10-10_14h11.32.036,cpt_test,2024.2.2,60.05764332101574,2024-10-10 14h14.22.682157 -0600,
65,X,1,x,64,64,0,x,1,0.37155080001684837,0.14006019997759722,0,64,64,64,278.1306915000023,,,,,,,,,,278.1162212000054,278.1306915000023,278.1306915000023,278.3172036999895,278.33395030000247,280.1130579999881,x,1,,0.37155080001684837,0.14006019997759722,000019,001,2024-10-10_14h11.32.036,cpt_test,2024.2.2,60.05764332101574,2024-10-10 14h14.22.682157 -0600,
66,A,0,None,65,65,0,None,1,,,0,65,65,65,280.1270736999868,,,,,,,,,,280.11347929999465,280.1270736999868,280.1270736999868,280.30692460000864,280.33941129999585,282.11019089998445,None,1,,,,000019,001,2024-10-10_14h11.32.036,cpt_test,2024.2.2,60.05764332101574,2024-10-10 14h14.22.682157 -0600,
67,N,0,None,66,66,0,None,1,,,0,66,66,66,282.12310860000434,,,,,,,,,,282.1104908999987,282.12310860000434,282.12310860000434,282.3047637999989,282.33757229999173,284.10443529998884,None,1,,,,000019,001,2024-10-10_14h11.32.036,cpt_test,2024.2.2,60.05764332101574,2024-10-10 14h14.22.682157 -0600,
68,H,0,None,67,67,0,None,1,,,0,67,67,67,284.1388136000023,,,,,,,,,,284.1048068999953,284.1388136000023,284.1388136000023,284.3041871000023,284.3528892000031,286.10709209999186,None,1,,,,000019,001,2024-10-10_14h11.32.036,cpt_test,2024.2.2,60.05764332101574,2024-10-10 14h14.22.682157 -0600,
69,A,0,None,68,68,0,None,1,,,0,68,68,68,286.12029230000917,,,,,,,,,,286.10741580001195,286.12029230000917,286.12029230000917,286.3013573999924,286.33450550001,288.1066606999957,None,1,,,,000019,001,2024-10-10_14h11.32.036,cpt_test,2024.2.2,60.05764332101574,2024-10-10 14h14.22.682157 -0600,
70,X,1,x,69,69,0,x,1,0.40140330002759583,0.1354570999974385,0,69,69,69,288.1211739999999,,,,,,,,,,288.10705560000497,288.1211739999999,288.1211739999999,288.30796259999624,288.32467629999155,290.103552399989,x,1,,0.40140330002759583,0.1354570999974385,000019,001,2024-10-10_14h11.32.036,cpt_test,2024.2.2,60.05764332101574,2024-10-10 14h14.22.682157 -0600,
71,F,0,None,70,70,0,None,1,,,0,70,70,70,290.1165079000057,,,,,,,,,,290.1038728999847,290.1165079000057,290.1165079000057,290.3157159000111,290.33222000001115,292.1023601999914,None,1,,,,000019,001,2024-10-10_14h11.32.036,cpt_test,2024.2.2,60.05764332101574,2024-10-10 14h14.22.682157 -0600,
72,N,0,None,71,71,0,None,1,,,0,71,71,71,292.11496469998383,,,,,,,,,,292.1026583999919,292.11496469998383,292.11496469998383,292.3132857999881,292.3296044000017,294.10864449999644,None,1,,,,000019,001,2024-10-10_14h11.32.036,cpt_test,2024.2.2,60.05764332101574,2024-10-10 14h14.22.682157 -0600,
73,K,0,None,72,72,0,None,1,,,0,72,72,72,294.1219725999981,,,,,,,,,,294.10899410001,294.1219725999981,294.1219725999981,294.31560380000155,294.33158430000185,296.1170853000076,None,1,,,,000019,001,2024-10-10_14h11.32.036,cpt_test,2024.2.2,60.05764332101574,2024-10-10 14h14.22.682157 -0600,
74,Y,0,None,73,73,0,None,1,,,0,73,73,73,296.1311393000069,,,,,,,,,,296.11746239999775,296.1311393000069,296.1311393000069,296.30997420000494,296.34314240000094,298.11375349998707,None,1,,,,000019,001,2024-10-10_14h11.32.036,cpt_test,2024.2.2,60.05764332101574,2024-10-10 14h14.22.682157 -0600,
75,Y,0,None,74,74,0,None,1,,,0,74,74,74,298.1251430999837,,,,,,,,,,298.1139370999881,298.1251430999837,298.1251430999837,298.30825649999315,298.32446830000845,300.11320039999555,None,1,,,,000019,001,2024-10-10_14h11.32.036,cpt_test,2024.2.2,60.05764332101574,2024-10-10 14h14.22.682157 -0600,
76,R,0,None,75,75,0,None,1,,,0,75,75,75,300.127542000002,,,,,,,,,,300.1135932999896,300.127542000002,300.127542000002,300.30904739999096,300.3393873999885,302.11216699998477,None,1,,,,000019,001,2024-10-10_14h11.32.036,cpt_test,2024.2.2,60.05764332101574,2024-10-10 14h14.22.682157 -0600,
77,X,1,x,76,76,0,x,1,0.3913696999952663,0.19084060000022873,0,76,76,76,302.1267103999853,,,,,,,,,,302.1125555000035,302.1267103999853,302.1267103999853,302.3086713000084,302.33846070000436,304.1093266000098,x,1,,0.3913696999952663,0.19084060000022873,000019,001,2024-10-10_14h11.32.036,cpt_test,2024.2.2,60.05764332101574,2024-10-10 14h14.22.682157 -0600,
78,R,0,None,77,77,0,None,1,,,0,77,77,77,304.1225674999878,,,,,,,,,,304.109655999986,304.1225674999878,304.1225674999878,304.3033832999936,304.33638759999303,306.10916819999693,None,1,,,,000019,001,2024-10-10_14h11.32.036,cpt_test,2024.2.2,60.05764332101574,2024-10-10 14h14.22.682157 -0600,
79,F,0,None,78,78,0,None,1,,,0,78,78,78,306.1237534999964,,,,,,,,,,306.10957559998496,306.1237534999964,306.1237534999964,306.3012419999868,306.33439720000024,308.10518499999307,None,1,,,,000019,001,2024-10-10_14h11.32.036,cpt_test,2024.2.2,60.05764332101574,2024-10-10 14h14.22.682157 -0600,
80,K,0,None,79,79,0,None,1,,,0,79,79,79,308.118304100004,,,,,,,,,,308.10548490000656,308.118304100004,308.118304100004,308.31659939998644,308.3330534999841,310.1038072000083,None,1,,,,000019,001,2024-10-10_14h11.32.036,cpt_test,2024.2.2,60.05764332101574,2024-10-10 14h14.22.682157 -0600,
81,O,0,None,80,80,0,None,1,,,0,80,80,80,310.11679830000503,,,,,,,,,,310.10410639998736,310.11679830000503,310.11679830000503,310.31498649998684,310.3311424999847,312.1022060000105,None,1,,,,000019,001,2024-10-10_14h11.32.036,cpt_test,2024.2.2,60.05764332101574,2024-10-10 14h14.22.682157 -0600,
82,F,0,None,81,81,0,None,1,,,0,81,81,81,312.1151619000011,,,,,,,,,,312.1025217999995,312.1151619000011,312.1151619000011,312.3142852000019,312.33058819998405,314.11738579999655,None,1,,,,000019,001,2024-10-10_14h11.32.036,cpt_test,2024.2.2,60.05764332101574,2024-10-10 14h14.22.682157 -0600,
83,F,0,None,82,82,0,None,1,,,0,82,82,82,314.1283556999988,,,,,,,,,,314.11770719999913,314.1283556999988,314.1283556999988,314.311558699992,314.3280745999946,316.11544620001223,None,1,,,,000019,001,2024-10-10_14h11.32.036,cpt_test,2024.2.2,60.05764332101574,2024-10-10 14h14.22.682157 -0600,
84,W,0,None,83,83,0,None,1,,,0,83,83,83,316.15268070000457,,,,,,,,,,316.1157515000086,316.15268070000457,316.15268070000457,316.31028129998595,316.3597858999856,318.1141174999939,None,1,,,,000019,001,2024-10-10_14h11.32.036,cpt_test,2024.2.2,60.05764332101574,2024-10-10 14h14.22.682157 -0600,
85,X,1,x,84,84,0,x,1,0.4134578999946825,0.12498379999306053,0,84,84,84,318.1270179999992,,,,,,,,,,318.1144190999912,318.1270179999992,318.1270179999992,318.3084264000063,318.3414228000038,320.1122069999983,x,1,,0.4134578999946825,0.12498379999306053,000019,001,2024-10-10_14h11.32.036,cpt_test,2024.2.2,60.05764332101574,2024-10-10 14h14.22.682157 -0600,
86,J,0,None,85,85,0,None,1,,,0,85,85,85,320.1247751000046,,,,,,,,,,320.11255439999513,320.1247751000046,320.1247751000046,320.30867609998677,320.3254336999962,322.1113483000081,None,1,322.10522490000585,,,000019,001,2024-10-10_14h11.32.036,cpt_test,2024.2.2,60.05764332101574,2024-10-10 14h14.22.682157 -0600,
87,N,0,None,86,86,0,None,1,,,0,86,86,86,322.12412299998687,,,,,,,,,,322.1116634999926,322.12412299998687,322.12412299998687,322.3051251999859,322.3381837999914,324.1087899999984,None,1,,,,000019,001,2024-10-10_14h11.32.036,cpt_test,2024.2.2,60.05764332101574,2024-10-10 14h14.22.682157 -0600,
88,X,1,x,87,87,0,x,1,0.50603669998236,0.14000169999781065,0,87,87,87,324.1219396000088,,,,,,,,,,324.1090964000032,324.1219396000088,324.1219396000088,324.30349570000544,324.3364329999895,326.1073160000087,x,1,,0.50603669998236,0.14000169999781065,000019,001,2024-10-10_14h11.32.036,cpt_test,2024.2.2,60.05764332101574,2024-10-10 14h14.22.682157 -0600,
89,T,0,None,88,88,0,None,1,,,0,88,88,88,326.12020830000984,,,,,,,,,,326.10763159999624,326.12020830000984,326.12020830000984,326.3018587999977,326.3346823999891,328.10575119999703,None,1,,,,000019,001,2024-10-10_14h11.32.036,cpt_test,2024.2.2,60.05764332101574,2024-10-10 14h14.22.682157 -0600,
90,I,0,None,89,89,0,None,1,,,0,89,89,89,328.11817259999225,,,,,,,,,,328.1060515999852,328.11817259999225,328.11817259999225,328.3165389999922,328.33311229999526,330.10394679999445,None,1,,,,000019,001,2024-10-10_14h11.32.036,cpt_test,2024.2.2,60.05764332101574,2024-10-10 14h14.22.682157 -0600,
91,P,0,None,90,90,0,None,1,,,0,90,90,90,330.1169219999865,,,,,,,,,,330.1042679999955,330.1169219999865,330.1169219999865,330.3159431999957,330.3330009999918,332.102701900003,None,1,,,,000019,001,2024-10-10_14h11.32.036,cpt_test,2024.2.2,60.05764332101574,2024-10-10 14h14.22.682157 -0600,
92,X,1,x,91,91,0,x,1,0.4279529000050388,0.14962839998770505,0,91,91,91,332.11522979999427,,,,,,,,,,332.10299389998545,332.11522979999427,332.11522979999427,332.3135353999969,332.3297773000086,334.11731539998436,x,1,,0.4279529000050388,0.14962839998770505,000019,001,2024-10-10_14h11.32.036,cpt_test,2024.2.2,60.05764332101574,2024-10-10 14h14.22.682157 -0600,
93,B,0,None,92,92,0,None,1,,,0,92,92,92,334.12985900000785,,,,,,,,,,334.11763160000555,334.12985900000785,334.12985900000785,334.31173169999965,334.3449968000059,336.1162638000096,None,1,,,,000019,001,2024-10-10_14h11.32.036,cpt_test,2024.2.2,60.05764332101574,2024-10-10 14h14.22.682157 -0600,
94,M,0,None,93,93,0,None,1,,,0,93,93,93,336.1289349999861,,,,,,,,,,336.1165736000112,336.1289349999861,336.1289349999861,336.31131829999504,336.3279184999992,338.1140288999886,None,1,,,,000019,001,2024-10-10_14h11.32.036,cpt_test,2024.2.2,60.05764332101574,2024-10-10 14h14.22.682157 -0600,
95,B,0,None,94,94,0,None,1,,,0,94,94,94,338.1272148999851,,,,,,,,,,338.11435220000567,338.1272148999851,338.1272148999851,338.3084411000018,338.3416256000055,340.11215329999686,None,1,,,,000019,001,2024-10-10_14h11.32.036,cpt_test,2024.2.2,60.05764332101574,2024-10-10 14h14.22.682157 -0600,
96,I,0,None,95,95,0,None,1,,,0,95,95,95,340.1249738000042,,,,,,,,,,340.1124528000073,340.1249738000042,340.1249738000042,340.3064318000106,340.3397922999866,342.1105203999905,None,1,,,,000019,001,2024-10-10_14h11.32.036,cpt_test,2024.2.2,60.05764332101574,2024-10-10 14h14.22.682157 -0600,
97,X,1,x,96,96,0,x,1,0.3677183999971021,0.17204290002700873,0,96,96,96,342.1233529000019,,,,,,,,,,342.11082169998554,342.1233529000019,342.1233529000019,342.30504909998854,342.3380955999892,344.10950160000357,x,1,,0.3677183999971021,0.17204290002700873,000019,001,2024-10-10_14h11.32.036,cpt_test,2024.2.2,60.05764332101574,2024-10-10 14h14.22.682157 -0600,
98,J,0,None,97,97,0,None,1,,,0,97,97,97,344.12252179998904,,,,,,,,,,344.1098187000025,344.12252179998904,344.12252179998904,344.30364599998575,344.3367602000071,346.1075914000103,None,1,,,,000019,001,2024-10-10_14h11.32.036,cpt_test,2024.2.2,60.05764332101574,2024-10-10 14h14.22.682157 -0600,
99,X,1,x,98,98,0,x,1,0.42581099999370053,0.1541373000072781,0,98,98,98,346.1214387000073,,,,,,,,,,346.107923100004,346.1214387000073,346.1214387000073,346.30285899998853,346.3370222999947,348.1061483999947,x,1,,0.42581099999370053,0.1541373000072781,000019,001,2024-10-10_14h11.32.036,cpt_test,2024.2.2,60.05764332101574,2024-10-10 14h14.22.682157 -0600,
100,U,0,None,99,99,0,None,1,,,0,99,99,99,348.1191792000027,,,,,,,,,,348.1064837999875,348.1191792000027,348.1191792000027,348.31709930000943,348.33324949999223,350.10429349998594,None,1,,,,000019,001,2024-10-10_14h11.32.036,cpt_test,2024.2.2,60.05764332101574,2024-10-10 14h14.22.682157 -0600,
101,D,0,None,100,100,0,None,1,,,0,100,100,100,350.1173274999892,,,,,,,,,,350.10459519998403,350.1173274999892,350.1173274999892,350.3153639000084,350.33181410000543,352.10282619998907,None,1,,,,000019,001,2024-10-10_14h11.32.036,cpt_test,2024.2.2,60.05764332101574,2024-10-10 14h14.22.682157 -0600,
102,X,1,x,101,101,0,x,1,0.4139351000194438,0.14951969997491688,0,101,101,101,352.1162542999955,,,,,,,,,,352.10315069998614,352.1162542999955,352.1162542999955,352.31379190000007,352.3301495999913,354.10882120000315,x,1,,0.4139351000194438,0.14951969997491688,000019,001,2024-10-10_14h11.32.036,cpt_test,2024.2.2,60.05764332101574,2024-10-10 14h14.22.682157 -0600,
103,X,1,x,102,102,0,x,1,0.4237931999959983,0.18083900000783615,0,102,102,102,354.11795449999045,,,,,,,,,,354.10920770000666,354.11795449999045,354.11795449999045,354.3124705000082,354.3283071999904,356.115956499998,x,1,,0.4237931999959983,0.18083900000783615,000019,001,2024-10-10_14h11.32.036,cpt_test,2024.2.2,60.05764332101574,2024-10-10 14h14.22.682157 -0600,
104,N,0,None,103,103,0,None,1,,,0,103,103,103,356.1290115999873,,,,,,,,,,356.11626969999634,356.1290115999873,356.1290115999873,356.3104223999835,356.3432857999869,358.1141670999932,None,1,,,,000019,001,2024-10-10_14h11.32.036,cpt_test,2024.2.2,60.05764332101574,2024-10-10 14h14.22.682157 -0600,
105,U,0,None,104,104,0,None,1,,,0,104,104,104,358.12720660000923,,,,,,,,,,358.1144698999997,358.12720660000923,358.12720660000923,358.30872040000395,358.3416508999944,360.112956500001,None,1,,,,000019,001,2024-10-10_14h11.32.036,cpt_test,2024.2.2,60.05764332101574,2024-10-10 14h14.22.682157 -0600,
106,T,0,None,105,105,0,None,1,,,0,105,105,105,360.1258991000068,,,,,,,,,,360.11325649998616,360.1258991000068,360.1258991000068,360.3071501000086,360.3401659000083,362.1118631999998,None,1,,,,000019,001,2024-10-10_14h11.32.036,cpt_test,2024.2.2,60.05764332101574,2024-10-10 14h14.22.682157 -0600,
107,W,0,None,106,106,0,x,0,0.4236339000053704,0.11789439999847673,0,106,106,106,362.1251275000104,,,,,,,,,,362.1121739000082,362.1251275000104,362.1251275000104,362.3057117999997,362.3384073000052,364.1120277000009,x,0,364.10481299998355,0.4236339000053704,0.11789439999847673,000019,001,2024-10-10_14h11.32.036,cpt_test,2024.2.2,60.05764332101574,2024-10-10 14h14.22.682157 -0600,
108,N,0,None,107,107,0,None,1,,,0,107,107,107,364.1269333999953,,,,,,,,,,364.1124606000085,364.1269333999953,364.1269333999953,364.30389509999077,364.3367304999847,366.10812960000476,None,1,,,,000019,001,2024-10-10_14h11.32.036,cpt_test,2024.2.2,60.05764332101574,2024-10-10 14h14.22.682157 -0600,
109,R,0,None,108,108,0,None,1,,,0,108,108,108,366.1211656999949,,,,,,,,,,366.10844789998373,366.1211656999949,366.1211656999949,366.3022234000091,366.3352169999853,368.1061744999897,None,1,,,,000019,001,2024-10-10_14h11.32.036,cpt_test,2024.2.2,60.05764332101574,2024-10-10 14h14.22.682157 -0600,
110,X,1,x,109,109,0,x,1,0.47302679999847896,0.14433069998631254,0,109,109,109,368.1193835999875,,,,,,,,,,368.1064941000077,368.1193835999875,368.1193835999875,368.3005512999953,368.3334751999937,370.1043728000077,x,1,,0.47302679999847896,0.14433069998631254,000019,001,2024-10-10_14h11.32.036,cpt_test,2024.2.2,60.05764332101574,2024-10-10 14h14.22.682157 -0600,
111,A,0,None,110,110,0,None,1,,,0,110,110,110,370.11763860000065,,,,,,,,,,370.1046889999998,370.11763860000065,370.11763860000065,370.315485900006,370.3319365000061,372.1027539999923,None,1,,,,000019,001,2024-10-10_14h11.32.036,cpt_test,2024.2.2,60.05764332101574,2024-10-10 14h14.22.682157 -0600,
112,X,1,x,111,111,0,x,1,0.42622860000119545,0.11285259999567643,0,111,111,111,372.11589139999705,,,,,,,,,,372.10305289999815,372.11589139999705,372.11589139999705,372.3138806000061,372.33033440000145,374.10155849999865,x,1,,0.42622860000119545,0.11285259999567643,000019,001,2024-10-10_14h11.32.036,cpt_test,2024.2.2,60.05764332101574,2024-10-10 14h14.22.682157 -0600,
113,G,0,None,112,112,0,None,1,,,0,112,112,112,374.1153026999964,,,,,,,,,,374.10190899999,374.1153026999964,374.1153026999964,374.31217930000275,374.3286291999975,376.1164829999907,None,1,,,,000019,001,2024-10-10_14h11.32.036,cpt_test,2024.2.2,60.05764332101574,2024-10-10 14h14.22.682157 -0600,
114,O,0,None,113,113,0,None,1,,,0,113,113,113,376.12956040000427,,,,,,,,,,376.11678839998785,376.12956040000427,376.12956040000427,376.31054879998555,376.3436642999877,378.1144662000006,None,1,,,,000019,001,2024-10-10_14h11.32.036,cpt_test,2024.2.2,60.05764332101574,2024-10-10 14h14.22.682157 -0600,
115,U,0,None,114,114,0,None,1,,,0,114,114,114,378.12725990000763,,,,,,,,,,378.1147903999954,378.12725990000763,378.12725990000763,378.30889139999636,378.34188210000866,380.11443580000196,None,1,,,,000019,001,2024-10-10_14h11.32.036,cpt_test,2024.2.2,60.05764332101574,2024-10-10 14h14.22.682157 -0600,
116,X,1,x,115,115,0,x,1,0.4517383000056725,0.16379500000039116,0,115,115,115,380.1285121999972,,,,,,,,,,380.11481020000065,380.1285121999972,380.1285121999972,380.314816099999,380.331417999987,382.11112849999336,x,1,,0.4517383000056725,0.16379500000039116,000019,001,2024-10-10_14h11.32.036,cpt_test,2024.2.2,60.05764332101574,2024-10-10 14h14.22.682157 -0600,
117,X,1,x,116,116,0,x,1,0.5968869999924209,0.14476160000776872,0,116,116,116,382.1224196999974,,,,,,,,,,382.11145840000245,382.1224196999974,382.1224196999974,382.30550210000365,382.3219155000115,384.10933320000186,x,1,,0.5968869999924209,0.14476160000776872,000019,001,2024-10-10_14h11.32.036,cpt_test,2024.2.2,60.05764332101574,2024-10-10 14h14.22.682157 -0600,
118,C,0,None,117,117,0,None,1,,,0,117,117,117,384.121561500011,,,,,,,,,,384.109646900004,384.121561500011,384.121561500011,384.3038980999845,384.3203213000088,386.1092989000026,None,1,,,,000019,001,2024-10-10_14h11.32.036,cpt_test,2024.2.2,60.05764332101574,2024-10-10 14h14.22.682157 -0600,
119,A,0,None,118,118,0,None,1,,,0,118,118,118,386.12333569998736,,,,,,,,,,386.10968170000706,386.12333569998736,386.12333569998736,386.30225459998474,386.3352459000016,388.10620879998896,None,1,,,,000019,001,2024-10-10_14h11.32.036,cpt_test,2024.2.2,60.05764332101574,2024-10-10 14h14.22.682157 -0600,
120,X,1,x,119,119,0,x,1,0.43783979999716394,0.14462179999100044,0,119,119,119,388.1198531999835,,,,,,,,,,388.1065054000064,388.1198531999835,388.1198531999835,388.3008259999915,388.33385669998825,390.1048493999988,x,1,,0.43783979999716394,0.14462179999100044,000019,001,2024-10-10_14h11.32.036,cpt_test,2024.2.2,60.05764332101574,2024-10-10 14h14.22.682157 -0600,
121,H,0,None,120,120,0,None,1,,,0,120,120,120,390.11798609999823,,,,,,,,,,390.1051853999961,390.11798609999823,390.11798609999823,390.31559859999106,390.3321292999899,392.10307979999925,None,1,,,,000019,001,2024-10-10_14h11.32.036,cpt_test,2024.2.2,60.05764332101574,2024-10-10 14h14.22.682157 -0600,
122,M,0,None,121,121,0,None,1,,,0,121,121,121,392.11612580000656,,,,,,,,,,392.10337789999903,392.11612580000656,392.11612580000656,392.31428610000876,392.3304608000035,394.1026995999855,None,1,,,,000019,001,2024-10-10_14h11.32.036,cpt_test,2024.2.2,60.05764332101574,2024-10-10 14h14.22.682157 -0600,
123,V,0,None,122,122,0,None,1,,,0,122,122,122,394.11751979999826,,,,,,,,,,394.10307539999485,394.11751979999826,394.11751979999826,394.30424130000756,394.32098220000626,396.11662439999054,None,1,396.1107389999961,,,000019,001,2024-10-10_14h11.32.036,cpt_test,2024.2.2,60.05764332101574,2024-10-10 14h14.22.682157 -0600,
124,K,0,None,123,123,0,None,1,,,0,123,123,123,396.12955909999437,,,,,,,,,,396.1169358000043,396.12955909999437,396.12955909999437,396.3107758999977,396.3437483999878,398.1146804000018,None,1,,,,000019,001,2024-10-10_14h11.32.036,cpt_test,2024.2.2,60.05764332101574,2024-10-10 14h14.22.682157 -0600,
125,G,0,None,124,124,0,None,1,,,0,124,124,124,398.12776309999754,,,,,,,,,,398.114994500007,398.12776309999754,398.12776309999754,398.30919440000434,398.34221380000236,400.113145899988,None,1,,,,000019,001,2024-10-10_14h11.32.036,cpt_test,2024.2.2,60.05764332101574,2024-10-10 14h14.22.682157 -0600,
126,A,0,None,125,125,0,None,1,,,0,125,125,125,400.1263667999883,,,,,,,,,,400.1134469000099,400.1263667999883,400.1263667999883,400.30917079999927,400.32573789998423,402.11163930001203,None,1,,,,000019,001,2024-10-10_14h11.32.036,cpt_test,2024.2.2,60.05764332101574,2024-10-10 14h14.22.682157 -0600,
127,X,1,x,126,126,0,x,1,0.4447509000019636,0.15898160001961514,0,126,126,126,402.1250794999942,,,,,,,,,,402.1119718000118,402.1250794999942,402.1250794999942,402.3059038000065,402.33893959998386,404.11119419999886,x,1,404.10591670000576,0.4447509000019636,0.15898160001961514,000019,001,2024-10-10_14h11.32.036,cpt_test,2024.2.2,60.05764332101574,2024-10-10 14h14.22.682157 -0600,
128,N,0,None,127,127,0,None,1,,,0,127,127,127,404.12373369999113,,,,,,,,,,404.1114832999883,404.12373369999113,404.12373369999113,404.3042559000023,404.3372507999884,406.1084328999859,None,1,,,,000019,001,2024-10-10_14h11.32.036,cpt_test,2024.2.2,60.05764332101574,2024-10-10 14h14.22.682157 -0600,
129,Y,0,None,128,128,0,None,1,,,0,128,128,128,406.12147270000423,,,,,,,,,,406.1087320999941,406.12147270000423,406.12147270000423,406.3024558000034,406.33540260000154,408.108567999996,None,1,,,,000019,001,2024-10-10_14h11.32.036,cpt_test,2024.2.2,60.05764332101574,2024-10-10 14h14.22.682157 -0600,
130,W,0,None,129,129,0,None,1,,,0,129,129,129,408.12328090000665,,,,,,,,,,408.10897199998726,408.12328090000665,408.12328090000665,408.3131046000053,408.3300231999892,410.1049467000121,None,1,,,,000019,001,2024-10-10_14h11.32.036,cpt_test,2024.2.2,60.05764332101574,2024-10-10 14h14.22.682157 -0600,
131,L,0,None,130,130,0,None,1,,,0,130,130,130,410.11811780001153,,,,,,,,,,410.10525279998546,410.11811780001153,410.11811780001153,410.3158995999838,410.33214340000995,412.1028560999839,None,1,,,,000019,001,2024-10-10_14h11.32.036,cpt_test,2024.2.2,60.05764332101574,2024-10-10 14h14.22.682157 -0600,
132,F,0,None,131,131,0,None,1,,,0,131,131,131,412.1157976000104,,,,,,,,,,412.10315790001187,412.1157976000104,412.1157976000104,412.3141093000013,412.3304768000089,414.10155930000474,None,1,,,,000019,001,2024-10-10_14h11.32.036,cpt_test,2024.2.2,60.05764332101574,2024-10-10 14h14.22.682157 -0600,
133,E,0,None,132,132,0,None,1,,,0,132,132,132,414.11469690001104,,,,,,,,,,414.10187159999623,414.11469690001104,414.11469690001104,414.3125442999881,414.3288135000039,416.11663460001,None,1,,,,000019,001,2024-10-10_14h11.32.036,cpt_test,2024.2.2,60.05764332101574,2024-10-10 14h14.22.682157 -0600,
134,L,0,None,133,133,0,None,1,,,0,133,133,133,416.12957230000757,,,,,,,,,,416.1169343999936,416.12957230000757,416.12957230000757,416.3110631000018,416.344067500002,418.114728799992,None,1,,,,000019,001,2024-10-10_14h11.32.036,cpt_test,2024.2.2,60.05764332101574,2024-10-10 14h14.22.682157 -0600,
135,K,0,None,134,134,0,None,1,,,0,134,134,134,418.12795629998436,,,,,,,,,,418.115028900007,418.12795629998436,418.12795629998436,418.30923089999123,418.34233899999526,420.11348189998535,None,1,,,,000019,001,2024-10-10_14h11.32.036,cpt_test,2024.2.2,60.05764332101574,2024-10-10 14h14.22.682157 -0600,
136,Q,0,None,135,135,0,None,1,,,0,135,135,135,420.126780599996,,,,,,,,,,420.1137996999896,420.126780599996,420.126780599996,420.30758930000593,420.3407254999911,422.11139790000743,None,1,,,,000019,001,2024-10-10_14h11.32.036,cpt_test,2024.2.2,60.05764332101574,2024-10-10 14h14.22.682157 -0600,
137,X,1,x,136,136,0,x,1,0.5551711000152864,0.1776135999825783,0,136,136,136,422.1243623000046,,,,,,,,,,422.11169719998725,422.1243623000046,422.1243623000046,422.30741559999296,422.3239806999918,424.1113911999855,x,1,,0.5551711000152864,0.1776135999825783,000019,001,2024-10-10_14h11.32.036,cpt_test,2024.2.2,60.05764332101574,2024-10-10 14h14.22.682157 -0600,
138,J,0,None,137,137,0,None,1,,,0,137,137,137,424.12696540000616,,,,,,,,,,424.11178569999174,424.12696540000616,424.12696540000616,424.3042329000018,424.3374853999994,426.10839889998897,None,1,,,,000019,001,2024-10-10_14h11.32.036,cpt_test,2024.2.2,60.05764332101574,2024-10-10 14h14.22.682157 -0600,
139,X,1,x,138,138,0,x,1,0.4619821999804117,0.19895230000838637,0,138,138,138,426.12156110000797,,,,,,,,,,426.10869749999256,426.12156110000797,426.12156110000797,426.3026347999985,426.33574869998847,428.10683179998887,x,1,,0.4619821999804117,0.19895230000838637,000019,001,2024-10-10_14h11.32.036,cpt_test,2024.2.2,60.05764332101574,2024-10-10 14h14.22.682157 -0600,
140,E,0,None,139,139,0,None,1,,,0,139,139,139,428.12018599998555,,,,,,,,,,428.10716710001,428.12018599998555,428.12018599998555,428.30101709999144,428.33417670000927,430.1051872000098,None,1,,,,000019,001,2024-10-10_14h11.32.036,cpt_test,2024.2.2,60.05764332101574,2024-10-10 14h14.22.682157 -0600,
141,T,0,None,140,140,0,None,1,,,0,140,140,140,430.11844630000996,,,,,,,,,,430.1055008000112,430.11844630000996,430.11844630000996,430.3161153999972,430.3325476000027,432.1035666000098,None,1,,,,000019,001,2024-10-10_14h11.32.036,cpt_test,2024.2.2,60.05764332101574,2024-10-10 14h14.22.682157 -0600,
142,X,1,x,141,141,0,x,1,0.5046759999822825,0.14445490000071004,0,141,141,141,432.11673849998624,,,,,,,,,,432.10388209999655,432.11673849998624,432.11673849998624,432.3146022000001,432.3309264999989,434.101888300007,x,1,,0.5046759999822825,0.14445490000071004,000019,001,2024-10-10_14h11.32.036,cpt_test,2024.2.2,60.05764332101574,2024-10-10 14h14.22.682157 -0600,
143,Q,0,None,142,142,0,None,1,,,0,142,142,142,434.11516210000264,,,,,,,,,,434.10224199999357,434.11516210000264,434.11516210000264,434.3130489999894,434.3292005000112,436.1166591999936,None,1,,,,000019,001,2024-10-10_14h11.32.036,cpt_test,2024.2.2,60.05764332101574,2024-10-10 14h14.22.682157 -0600,
144,V,0,None,143,143,0,None,1,,,0,143,143,143,436.12990790000185,,,,,,,,,,436.1169827999838,436.12990790000185,436.12990790000185,436.31124529999215,436.34405899999547,438.1148042999848,None,1,,,,000019,001,2024-10-10_14h11.32.036,cpt_test,2024.2.2,60.05764332101574,2024-10-10 14h14.22.682157 -0600,
145,Y,0,None,144,144,0,None,1,,,0,144,144,144,438.1277143000043,,,,,,,,,,438.1151181999885,438.1277143000043,438.1277143000043,438.30967509999755,438.3424087000021,440.11361900001066,None,1,,,,000019,001,2024-10-10_14h11.32.036,cpt_test,2024.2.2,60.05764332101574,2024-10-10 14h14.22.682157 -0600,
146,O,0,None,145,145,0,None,1,,,0,145,145,145,440.1267372999864,,,,,,,,,,440.11391759998514,440.1267372999864,440.1267372999864,440.3079374000081,440.340984999988,442.1132147999888,None,1,,,,000019,001,2024-10-10_14h11.32.036,cpt_test,2024.2.2,60.05764332101574,2024-10-10 14h14.22.682157 -0600,
147,T,0,None,146,146,0,None,1,,,0,146,146,146,442.1278353999951,,,,,,,,,,442.1135891999875,442.1278353999951,442.1278353999951,442.30631399998674,442.339209400001,444.11033920000773,None,1,,,,000019,001,2024-10-10_14h11.32.036,cpt_test,2024.2.2,60.05764332101574,2024-10-10 14h14.22.682157 -0600,
148,X,1,x,147,147,0,x,1,0.44236389998695813,0.16763320000609383,0,147,147,147,444.12345029998687,,,,,,,,,,444.11064289999194,444.12345029998687,444.12345029998687,444.30450649998966,444.33764549999614,446.1085727000027,x,1,,0.44236389998695813,0.16763320000609383,000019,001,2024-10-10_14h11.32.036,cpt_test,2024.2.2,60.05764332101574,2024-10-10 14h14.22.682157 -0600,
149,T,0,None,148,148,0,None,1,,,0,148,148,148,446.1217355999979,,,,,,,,,,446.10888509999495,446.1217355999979,446.1217355999979,446.3029516999959,446.3357815000054,448.10703799998737,None,1,,,,000019,001,2024-10-10_14h11.32.036,cpt_test,2024.2.2,60.05764332101574,2024-10-10 14h14.22.682157 -0600,
150,S,0,None,149,149,0,None,1,,,0,149,149,149,448.1200373999891,,,,,,,,,,448.107350700011,448.1200373999891,448.1200373999891,448.30132239998784,448.3341911000025,450.1052953999897,None,1,,,,000019,001,2024-10-10_14h11.32.036,cpt_test,2024.2.2,60.05764332101574,2024-10-10 14h14.22.682157 -0600,
151,L,0,None,150,150,0,None,1,,,0,150,150,150,450.1178185000026,,,,,,,,,,450.1055977999931,450.1178185000026,450.1178185000026,450.31635509998887,450.33253250000416,452.10378090001177,None,1,,,,000019,001,2024-10-10_14h11.32.036,cpt_test,2024.2.2,60.05764332101574,2024-10-10 14h14.22.682157 -0600,
152,V,0,None,151,151,0,None,1,,,0,151,151,151,452.1178239999863,,,,,,,,,,452.1041086000041,452.1178239999863,452.1178239999863,452.31463069998426,452.3308434000064,454.10201800000505,None,1,,,,000019,001,2024-10-10_14h11.32.036,cpt_test,2024.2.2,60.05764332101574,2024-10-10 14h14.22.682157 -0600,
153,C,0,None,152,152,0,None,1,,,0,152,152,152,454.11520060000475,,,,,,,,,,454.10232639999595,454.11520060000475,454.11520060000475,454.31495780000114,454.33129120001104,456.11461459999555,None,1,,,,000019,001,2024-10-10_14h11.32.036,cpt_test,2024.2.2,60.05764332101574,2024-10-10 14h14.22.682157 -0600,
154,U,0,None,153,153,0,None,1,,,0,153,153,153,456.12827610000386,,,,,,,,,,456.1148186000064,456.12827610000386,456.12827610000386,456.3112911999924,456.32758310000645,458.1155443000025,None,1,,,,000019,001,2024-10-10_14h11.32.036,cpt_test,2024.2.2,60.05764332101574,2024-10-10 14h14.22.682157 -0600,
155,X,1,x,154,154,0,x,1,0.5641750999784563,0.1899258000194095,0,154,154,154,458.12878170001204,,,,,,,,,,458.1158643999952,458.12878170001204,458.12878170001204,458.3096250999952,458.34258659998886,460.1138561000116,x,1,,0.5641750999784563,0.1899258000194095,000019,001,2024-10-10_14h11.32.036,cpt_test,2024.2.2,60.05764332101574,2024-10-10 14h14.22.682157 -0600,
156,X,1,x,155,155,0,x,1,0.4586624999938067,0.20088720001513138,0,155,155,155,460.12474579998525,,,,,,,,,,460.11417109999456,460.12474579998525,460.12474579998525,460.308100299997,460.32454719999805,462.1123404999962,x,1,,0.4586624999938067,0.20088720001513138,000019,001,2024-10-10_14h11.32.036,cpt_test,2024.2.2,60.05764332101574,2024-10-10 14h14.22.682157 -0600,
157,L,0,None,156,156,0,None,1,,,0,156,156,156,462.12531840000884,,,,,,,,,,462.112656399986,462.12531840000884,462.12531840000884,462.3083556999918,462.3252065000124,464.1108544000017,None,1,,,,000019,001,2024-10-10_14h11.32.036,cpt_test,2024.2.2,60.05764332101574,2024-10-10 14h14.22.682157 -0600,
158,W,0,None,157,157,0,None,1,,,0,157,157,157,464.12403400000767,,,,,,,,,,464.11115650000283,464.12403400000767,464.12403400000767,464.3048703999957,464.33781470000395,466.1087136999995,None,1,,,,000019,001,2024-10-10_14h11.32.036,cpt_test,2024.2.2,60.05764332101574,2024-10-10 14h14.22.682157 -0600,
159,A,0,None,158,158,0,None,1,,,0,158,158,158,466.12134819998755,,,,,,,,,,466.10902199998964,466.12134819998755,466.12134819998755,466.30313139999635,466.3359478999919,468.1069628999976,None,1,,,,000019,001,2024-10-10_14h11.32.036,cpt_test,2024.2.2,60.05764332101574,2024-10-10 14h14.22.682157 -0600,
160,X,1,x,159,159,0,x,1,0.6682132999994792,0.12781080001150258,0,159,159,159,468.1195943999919,,,,,,,,,,468.10727430001134,468.1195943999919,468.1195943999919,468.3016765000066,468.3343494999863,470.10541660001036,x,1,,0.6682132999994792,0.12781080001150258,000019,001,2024-10-10_14h11.32.036,cpt_test,2024.2.2,60.05764332101574,2024-10-10 14h14.22.682157 -0600,
161,A,0,None,160,160,0,None,1,,,0,160,160,160,470.11835710000014,,,,,,,,,,470.1057300000102,470.11835710000014,470.11835710000014,470.3174887000059,470.33444760000566,472.1039638000075,None,1,,,,000019,001,2024-10-10_14h11.32.036,cpt_test,2024.2.2,60.05764332101574,2024-10-10 14h14.22.682157 -0600,
162,M,0,None,161,161,0,None,1,,,0,161,161,161,472.1172571000061,,,,,,,,,,472.10428860000684,472.1172571000061,472.1172571000061,472.31497899998794,472.3310770000098,474.1025851999875,None,1,,,,000019,001,2024-10-10_14h11.32.036,cpt_test,2024.2.2,60.05764332101574,2024-10-10 14h14.22.682157 -0600,
163,X,1,x,162,162,0,x,1,0.5110245999821927,0.1995652000186965,0,162,162,162,474.11578069999814,,,,,,,,,,474.10291759998654,474.11578069999814,474.11578069999814,474.31403259999934,474.3306530000118,476.1016088000033,x,1,,0.5110245999821927,0.1995652000186965,000019,001,2024-10-10_14h11.32.036,cpt_test,2024.2.2,60.05764332101574,2024-10-10 14h14.22.682157 -0600,
164,X,1,x,163,163,0,x,1,0.4798799999989569,0.1520287999883294,0,163,163,163,476.11148089999915,,,,,,,,,,476.1020165999944,476.11148089999915,476.11148089999915,476.31130530001246,476.31130530001246,478.1152713999909,x,1,,0.4798799999989569,0.1520287999883294,000019,001,2024-10-10_14h11.32.036,cpt_test,2024.2.2,60.05764332101574,2024-10-10 14h14.22.682157 -0600,
165,K,0,None,164,164,0,None,1,,,0,164,164,164,478.12731419998454,,,,,,,,,,478.1156029999838,478.12731419998454,478.12731419998454,478.30983449998894,478.32604859999265,480.1140645999985,None,1,,,,000019,001,2024-10-10_14h11.32.036,cpt_test,2024.2.2,60.05764332101574,2024-10-10 14h14.22.682157 -0600,
166,X,1,x,165,165,0,x,1,0.46812239999417216,0.15726840001298115,0,165,165,165,480.1276591999922,,,,,,,,,,480.11438119999366,480.1276591999922,480.1276591999922,480.30819049998536,480.34117169998353,482.1120793999871,x,1,,0.46812239999417216,0.15726840001298115,000019,001,2024-10-10_14h11.32.036,cpt_test,2024.2.2,60.05764332101574,2024-10-10 14h14.22.682157 -0600,
167,M,0,None,166,166,0,None,1,,,0,166,166,166,482.12528109998675,,,,,,,,,,482.1123915000062,482.12528109998675,482.12528109998675,482.3067207999993,482.33950470000855,484.1102302999934,None,1,,,,000019,001,2024-10-10_14h11.32.036,cpt_test,2024.2.2,60.05764332101574,2024-10-10 14h14.22.682157 -0600,
168,X,1,x,167,167,0,x,1,0.42990809999173507,0.14399549999507144,0,167,167,167,484.1232608999999,,,,,,,,,,484.1105333000014,484.1232608999999,484.1232608999999,484.3050895000051,484.3377962000086,486.1087142000033,x,1,,0.42990809999173507,0.14399549999507144,000019,001,2024-10-10_14h11.32.036,cpt_test,2024.2.2,60.05764332101574,2024-10-10 14h14.22.682157 -0600,
169,A,0,None,168,168,0,None,1,,,0,168,168,168,486.11998499999754,,,,,,,,,,486.10891149999225,486.11998499999754,486.11998499999754,486.30319430000964,486.3195509999932,488.10747739998624,None,1,,,,000019,001,2024-10-10_14h11.32.036,cpt_test,2024.2.2,60.05764332101574,2024-10-10 14h14.22.682157 -0600,
170,X,1,x,169,169,0,x,1,0.45122790001914836,0.13484679997782223,0,169,169,169,488.12076369998977,,,,,,,,,,488.10781990000396,488.12076369998977,488.12076369998977,488.3016992000048,488.33458110000356,490.105642599985,x,1,,0.45122790001914836,0.13484679997782223,000019,001,2024-10-10_14h11.32.036,cpt_test,2024.2.2,60.05764332101574,2024-10-10 14h14.22.682157 -0600,
171,L,0,None,170,170,0,None,1,,,0,170,170,170,490.11868379998486,,,,,,,,,,490.1059682999912,490.11868379998486,490.11868379998486,490.31670649998705,490.33292660000734,492.10397759999614,None,1,,,,000019,001,2024-10-10_14h11.32.036,cpt_test,2024.2.2,60.05764332101574,2024-10-10 14h14.22.682157 -0600,
172,E,0,None,171,171,0,None,1,,,0,171,171,171,492.11693849999574,,,,,,,,,,492.1042768000043,492.11693849999574,492.11693849999574,492.31507059998694,492.33139720000327,494.1026520000014,None,1,,,,000019,001,2024-10-10_14h11.32.036,cpt_test,2024.2.2,60.05764332101574,2024-10-10 14h14.22.682157 -0600,
173,T,0,None,172,172,0,None,1,,,0,172,172,172,494.1155233999889,,,,,,,,,,494.1029591000115,494.1155233999889,494.1155233999889,494.31335519999266,494.32985650000046,496.11753690001206,None,1,,,,000019,001,2024-10-10_14h11.32.036,cpt_test,2024.2.2,60.05764332101574,2024-10-10 14h14.22.682157 -0600,
174,F,0,None,173,173,0,None,1,,,0,173,173,173,496.1305510000093,,,,,,,,,,496.1178322999913,496.1305510000093,496.1305510000093,496.31166179999127,496.3446255000017,498.1161012999946,None,1,,,,000019,001,2024-10-10_14h11.32.036,cpt_test,2024.2.2,60.05764332101574,2024-10-10 14h14.22.682157 -0600,
175,M,0,None,174,174,0,None,1,,,0,174,174,174,498.1292475000082,,,,,,,,,,498.1164155000006,498.1292475000082,498.1292475000082,498.3100881999999,498.34301979999873,500.1121923000028,None,1,,,,000019,001,2024-10-10_14h11.32.036,cpt_test,2024.2.2,60.05764332101574,2024-10-10 14h14.22.682157 -0600,
176,Q,0,None,175,175,0,None,1,,,0,175,175,175,500.1249989999924,,,,,,,,,,500.1123733999848,500.1249989999924,500.1249989999924,500.3082390000054,500.32449979998637,502.1137989999843,None,1,502.10680569999386,,,000019,001,2024-10-10_14h11.32.036,cpt_test,2024.2.2,60.05764332101574,2024-10-10 14h14.22.682157 -0600,
177,M,0,None,176,176,0,None,1,,,0,176,176,176,502.12893770000665,,,,,,,,,,502.1141689000069,502.12893770000665,502.12893770000665,502.30698379999376,502.3396653000091,504.110980700003,None,1,,,,000019,001,2024-10-10_14h11.32.036,cpt_test,2024.2.2,60.05764332101574,2024-10-10 14h14.22.682157 -0600,
178,X,1,x,177,177,0,x,1,0.43357490000198595,0.1719984000083059,0,177,177,177,504.1240858999954,,,,,,,,,,504.1112915999838,504.1240858999954,504.1240858999954,504.3052112000005,504.338101500005,506.11016139999265,x,1,,0.43357490000198595,0.1719984000083059,000019,001,2024-10-10_14h11.32.036,cpt_test,2024.2.2,60.05764332101574,2024-10-10 14h14.22.682157 -0600,
179,V,0,None,178,178,0,None,1,,,0,178,178,178,506.1260739999998,,,,,,,,,,506.1105669999961,506.1260739999998,506.1260739999998,506.30354980000993,506.33637589999125,508.11004830000456,None,1,,,,000019,001,2024-10-10_14h11.32.036,cpt_test,2024.2.2,60.05764332101574,2024-10-10 14h14.22.682157 -0600,
180,M,0,None,179,179,0,None,1,,,0,179,179,179,508.1247069000092,,,,,,,,,,508.1104660999845,508.1247069000092,508.1247069000092,508.3019409000117,508.33494309999514,510.1058750000084,None,1,,,,000019,001,2024-10-10_14h11.32.036,cpt_test,2024.2.2,60.05764332101574,2024-10-10 14h14.22.682157 -0600,
181,P,0,None,180,180,0,None,1,,,0,180,180,180,510.11880160000874,,,,,,,,,,510.10620650000055,510.11880160000874,510.11880160000874,510.31696890000603,510.33319949998986,512.1037515999924,None,1,,,,000019,001,2024-10-10_14h11.32.036,cpt_test,2024.2.2,60.05764332101574,2024-10-10 14h14.22.682157 -0600,
182,K,0,None,181,181,0,None,1,,,0,181,181,181,512.1166197999846,,,,,,,,,,512.1040485999838,512.1166197999846,512.1166197999846,512.3152755000046,512.3316422000062,514.102603700012,None,1,,,,000019,001,2024-10-10_14h11.32.036,cpt_test,2024.2.2,60.05764332101574,2024-10-10 14h14.22.682157 -0600,
183,V,0,None,182,182,0,None,1,,,0,182,182,182,514.1149742999987,,,,,,,,,,514.102917399985,514.1149742999987,514.1149742999987,514.3134801000124,514.3299580999883,516.1217027000093,None,1,,,,000019,001,2024-10-10_14h11.32.036,cpt_test,2024.2.2,60.05764332101574,2024-10-10 14h14.22.682157 -0600,
184,G,0,None,183,183,0,None,1,,,0,183,183,183,516.1398889999837,,,,,,,,,,516.122239999997,516.1398889999837,516.1398889999837,516.3020991999947,516.3467663000047,518.1160215999989,None,1,518.1101333000115,,,000019,001,2024-10-10_14h11.32.036,cpt_test,2024.2.2,60.05764332101574,2024-10-10 14h14.22.682157 -0600,
185,L,0,None,184,184,0,None,1,,,0,184,184,184,518.1290439000004,,,,,,,,,,518.116334899998,518.1290439000004,518.1290439000004,518.3101448999951,518.3434238999907,520.1143232999893,None,1,,,,000019,001,2024-10-10_14h11.32.036,cpt_test,2024.2.2,60.05764332101574,2024-10-10 14h14.22.682157 -0600,
186,Q,0,None,185,185,0,None,1,,,0,185,185,185,520.1275124000094,,,,,,,,,,520.1146289999888,520.1275124000094,520.1275124000094,520.3086439000035,520.3415144000028,522.1124080999871,None,1,,,,000019,001,2024-10-10_14h11.32.036,cpt_test,2024.2.2,60.05764332101574,2024-10-10 14h14.22.682157 -0600,
187,N,0,None,186,186,0,None,1,,,0,186,186,186,522.1254226999881,,,,,,,,,,522.1127287999843,522.1254226999881,522.1254226999881,522.307075299992,522.3398291000049,524.1123661999882,None,1,,,,000019,001,2024-10-10_14h11.32.036,cpt_test,2024.2.2,60.05764332101574,2024-10-10 14h14.22.682157 -0600,
188,K,0,None,187,187,0,None,1,,,0,187,187,187,524.1269619000086,,,,,,,,,,524.1128342000011,524.1269619000086,524.1269619000086,524.305220899987,524.3382158000022,526.1093973999959,None,1,,,,000019,001,2024-10-10_14h11.32.036,cpt_test,2024.2.2,60.05764332101574,2024-10-10 14h14.22.682157 -0600,
189,C,0,None,188,188,0,None,1,,,0,188,188,188,526.1224447999848,,,,,,,,,,526.1096984999895,526.1224447999848,526.1224447999848,526.3037555000046,526.336730799987,528.1084483999875,None,1,,,,000019,001,2024-10-10_14h11.32.036,cpt_test,2024.2.2,60.05764332101574,2024-10-10 14h14.22.682157 -0600,
190,Z,0,None,189,189,0,None,1,,,0,189,189,189,528.123045299988,,,,,,,,,,528.108803399984,528.123045299988,528.123045299988,528.3019249000063,528.3351033999934,530.1027700999985,None,1,,,,000019,001,2024-10-10_14h11.32.036,cpt_test,2024.2.2,60.05764332101574,2024-10-10 14h14.22.682157 -0600,
191,I,0,None,190,190,0,None,1,,,0,190,190,190,530.1170425000018,,,,,,,,,,530.1029293999891,530.1170425000018,530.1170425000018,530.3117601000122,530.3331159999943,532.1030307000037,None,1,,,,000019,001,2024-10-10_14h11.32.036,cpt_test,2024.2.2,60.05764332101574,2024-10-10 14h14.22.682157 -0600,
192,J,0,None,191,191,0,None,1,,,0,191,191,191,532.1152748999884,,,,,,,,,,532.1032805999857,532.1152748999884,532.1152748999884,532.3149239000049,532.3149239000049,534.1023165000079,None,1,,,,000019,001,2024-10-10_14h11.32.036,cpt_test,2024.2.2,60.05764332101574,2024-10-10 14h14.22.682157 -0600,
193,X,1,x,192,192,0,x,1,0.6366396000084933,0.14230079998378642,0,192,192,192,534.1154742999934,,,,,,,,,,534.1026180000044,534.1154742999934,534.1154742999934,534.3133906000003,534.3298568000027,536.1173239999916,x,1,,0.6366396000084933,0.14230079998378642,000019,001,2024-10-10_14h11.32.036,cpt_test,2024.2.2,60.05764332101574,2024-10-10 14h14.22.682157 -0600,
194,E,0,None,193,193,0,None,1,,,0,193,193,193,536.1307501000119,,,,,,,,,,536.1176401999837,536.1307501000119,536.1307501000119,536.3118865999859,536.3448614999943,538.1157264999929,None,1,,,,000019,001,2024-10-10_14h11.32.036,cpt_test,2024.2.2,60.05764332101574,2024-10-10 14h14.22.682157 -0600,
195,X,1,x,194,194,0,x,1,0.46304309999686666,0.1487496000190731,0,194,194,194,538.1285954999912,,,,,,,,,,538.1160207999928,538.1285954999912,538.1285954999912,538.3103316999914,538.3458395999915,540.11458329999,x,1,,0.46304309999686666,0.1487496000190731,000019,001,2024-10-10_14h11.32.036,cpt_test,2024.2.2,60.05764332101574,2024-10-10 14h14.22.682157 -0600,
196,X,1,x,195,195,0,x,1,0.3652144999941811,0.11723190001794137,0,195,195,195,540.1255620000011,,,,,,,,,,540.1149071000109,540.1255620000011,540.1255620000011,540.3088401999848,540.3250188000093,542.113076699985,x,1,,0.3652144999941811,0.11723190001794137,000019,001,2024-10-10_14h11.32.036,cpt_test,2024.2.2,60.05764332101574,2024-10-10 14h14.22.682157 -0600,
197,O,0,None,196,196,0,None,1,,,0,196,196,196,542.1266558000061,,,,,,,,,,542.1134048000094,542.1266558000061,542.1266558000061,542.3070877999999,542.3402668999915,544.1133114999975,None,1,544.106291700009,,,000019,001,2024-10-10_14h11.32.036,cpt_test,2024.2.2,60.05764332101574,2024-10-10 14h14.22.682157 -0600,
198,X,1,x,197,197,0,x,1,0.39597780001349747,0.10824949998641387,0,197,197,197,544.1279323000053,,,,,,,,,,544.1136883999861,544.1279323000053,544.1279323000053,544.3055452000117,544.3383832999971,546.1107038999908,x,1,,0.39597780001349747,0.10824949998641387,000019,001,2024-10-10_14h11.32.036,cpt_test,2024.2.2,60.05764332101574,2024-10-10 14h14.22.682157 -0600,
199,T,0,None,198,198,0,None,1,,,0,198,198,198,546.1252400999947,,,,,,,,,,546.1110982999962,546.1252400999947,546.1252400999947,546.3135341999878,546.3307513000036,548.1075228000118,None,1,,,,000019,001,2024-10-10_14h11.32.036,cpt_test,2024.2.2,60.05764332101574,2024-10-10 14h14.22.682157 -0600,
200,X,1,x,199,199,0,x,1,0.4324106000130996,0.08889620000263676,0,199,199,199,548.1204788000032,,,,,,,,,,548.1078232,548.1204788000032,548.1204788000032,548.3023755000031,548.3353195000091,550.1062226000067,x,1,,0.4324106000130996,0.08889620000263676,000019,001,2024-10-10_14h11.32.036,cpt_test,2024.2.2,60.05764332101574,2024-10-10 14h14.22.682157 -0600,
201,L,0,None,200,200,0,None,1,,,0,200,200,200,550.1191768999852,,,,,,,,,,550.1065593000094,550.1191768999852,550.1191768999852,550.3006039999891,550.3335314999858,552.1044351999881,None,1,,,,000019,001,2024-10-10_14h11.32.036,cpt_test,2024.2.2,60.05764332101574,2024-10-10 14h14.22.682157 -0600,
