Number,letra,target,correctas,thisN,thisTrialN,thisRepN,respuesta.keys,respuesta.corr,respuesta.rt,respuesta.duration,trials.thisRepN,trials.thisTrialN,trials.thisN,trials.thisIndex,thisRow.t,notes,Ojos_abiertos.started,Abiertos.started,Ojos_abiertos.stopped,Ojos_cerrados.started,Cerrados.started,Cerrados.stopped,alert.started,Ojos_cerrados.stopped,Test.started,prueba.started,respuesta.started,text.started,prueba.stopped,text.stopped,Test.stopped,trials.respuesta.keys,trials.respuesta.corr,trials.respuesta.rt,trials.respuesta.duration,participant,session,date,expName,psychopyVersion,frameRate,expStart,
,,,,,,,,,,,,,,,,,0.009605800005374476,0.017992100008996204,90.00128369999584,,,,,,,,,,,,,,,,,000015,001,2024-10-09_16h45.57.923,cpt_test,2024.2.2,60.02977477137804,2024-10-09 16h48.05.070032 -0600,
,,,,,,,,,,,,,,,,,,,,90.00239950002288,90.01470500000869,150.01512860000366,150.01529866666922,150.10120360000292,,,,,,,,,,,,000015,001,2024-10-09_16h45.57.923,cpt_test,2024.2.2,60.02977477137804,2024-10-09 16h48.05.070032 -0600,
1,A,0,None,0,0,0,None,1,,,0,0,0,0,150.27547700001742,,,,,,,,,,150.13092409999808,150.27547700001742,150.27547700001742,150.2987817999965,150.48157060000813,152.1134108999977,152.11649120002403,None,1,,,000015,001,2024-10-09_16h45.57.923,cpt_test,2024.2.2,60.02977477137804,2024-10-09 16h48.05.070032 -0600,
2,R,0,None,1,1,0,None,1,,,0,1,1,1,152.13510050001787,,,,,,,,,,152.116675199999,152.13510050001787,152.13510050001787,152.31393190001836,152.34687649999978,,154.11525160001474,None,1,,,000015,001,2024-10-09_16h45.57.923,cpt_test,2024.2.2,60.02977477137804,2024-10-09 16h48.05.070032 -0600,
3,L,0,None,2,2,0,None,1,,,0,2,2,2,154.13446349999867,,,,,,,,,,154.11543420000817,154.13446349999867,154.13446349999867,154.3118633000122,154.34502740000607,,156.11337060001097,None,1,,,000015,001,2024-10-09_16h45.57.923,cpt_test,2024.2.2,60.02977477137804,2024-10-09 16h48.05.070032 -0600,
4,X,1,x,3,3,0,x,1,0.3078559999994468,0.1771592999866698,0,3,3,3,156.13176950000343,,,,,,,,,,156.11356080000405,156.13176950000343,156.13176950000343,156.31028130001505,156.34361140002147,,158.1122748000198,x,1,0.3078559999994468,0.1771592999866698,000015,001,2024-10-09_16h45.57.923,cpt_test,2024.2.2,60.02977477137804,2024-10-09 16h48.05.070032 -0600,
5,O,0,None,4,4,0,None,1,,,0,4,4,4,158.12919960002182,,,,,,,,,,158.11248140002135,158.12919960002182,158.12919960002182,158.30888080000295,158.34172379999654,,160.11009960001684,None,1,,,000015,001,2024-10-09_16h45.57.923,cpt_test,2024.2.2,60.02977477137804,2024-10-09 16h48.05.070032 -0600,
6,G,0,None,5,5,0,None,1,,,0,5,5,5,160.1275593000173,,,,,,,,,,160.11028920000535,160.1275593000173,160.1275593000173,160.30700690002413,160.34024510000017,,162.1091753000219,None,1,,,000015,001,2024-10-09_16h45.57.923,cpt_test,2024.2.2,60.02977477137804,2024-10-09 16h48.05.070032 -0600,
7,P,0,None,6,6,0,None,1,,,0,6,6,6,162.13020630000392,,,,,,,,,,162.1093935999961,162.13020630000392,162.13020630000392,162.305508200021,162.33845190002467,,164.10663449999993,None,1,,,000015,001,2024-10-09_16h45.57.923,cpt_test,2024.2.2,60.02977477137804,2024-10-09 16h48.05.070032 -0600,
8,X,1,x,7,7,0,x,1,0.33101819999865256,0.17050380000728182,0,7,7,7,164.12075830000686,,,,,,,,,,164.10680330000469,164.12075830000686,164.12075830000686,164.30376070001512,164.32024870000896,,166.1054085000069,x,1,0.33101819999865256,0.17050380000728182,000015,001,2024-10-09_16h45.57.923,cpt_test,2024.2.2,60.02977477137804,2024-10-09 16h48.05.070032 -0600,
9,X,1,x,8,8,0,x,1,0.5162221000064164,0.15429539998876862,0,8,8,8,166.11907899999642,,,,,,,,,,166.10561070000404,166.11907899999642,166.11907899999642,166.30225180002162,166.3184034000151,,168.10371960001066,x,1,0.5162221000064164,0.15429539998876862,000015,001,2024-10-09_16h45.57.923,cpt_test,2024.2.2,60.02977477137804,2024-10-09 16h48.05.070032 -0600,
10,Z,0,None,9,9,0,None,1,,,0,9,9,9,168.12221240001963,,,,,,,,,,168.10393510002177,168.12221240001963,168.12221240001963,168.3004074000055,168.33375650001108,,170.10231840002234,None,1,,,000015,001,2024-10-09_16h45.57.923,cpt_test,2024.2.2,60.02977477137804,2024-10-09 16h48.05.070032 -0600,
11,I,0,None,10,10,0,None,1,,,0,10,10,10,170.1217897000024,,,,,,,,,,170.1025358000188,170.1217897000024,170.1217897000024,170.31574770002044,170.3318724000128,,172.1164318000083,None,1,,,000015,001,2024-10-09_16h45.57.923,cpt_test,2024.2.2,60.02977477137804,2024-10-09 16h48.05.070032 -0600,
12,D,0,None,11,11,0,None,1,,,0,11,11,11,172.1350929000182,,,,,,,,,,172.11658630002057,172.1350929000182,172.1350929000182,172.31392980000237,172.34694930000114,,174.1152209000138,None,1,,,000015,001,2024-10-09_16h45.57.923,cpt_test,2024.2.2,60.02977477137804,2024-10-09 16h48.05.070032 -0600,
13,X,1,x,12,12,0,x,1,0.28437160002067685,0.15841439997893758,0,12,12,12,174.1291334000125,,,,,,,,,,174.115418100002,174.1291334000125,174.1291334000125,174.3120633000217,174.32866840000497,,176.1143624999968,x,1,0.28437160002067685,0.15841439997893758,000015,001,2024-10-09_16h45.57.923,cpt_test,2024.2.2,60.02977477137804,2024-10-09 16h48.05.070032 -0600,
14,Y,0,None,13,13,0,None,1,,,0,13,13,13,176.13510780001525,,,,,,,,,,176.11459320000722,176.13510780001525,176.13510780001525,176.3117642000143,176.34398610002245,,178.112758400006,None,1,,,000015,001,2024-10-09_16h45.57.923,cpt_test,2024.2.2,60.02977477137804,2024-10-09 16h48.05.070032 -0600,
15,X,1,x,14,14,0,x,1,0.2861106999916956,0.1358782000024803,0,14,14,14,178.12578800000483,,,,,,,,,,178.11297909999848,178.12578800000483,178.12578800000483,178.30865439999616,178.3253887000028,,180.10982400001376,x,1,0.2861106999916956,0.1358782000024803,000015,001,2024-10-09_16h45.57.923,cpt_test,2024.2.2,60.02977477137804,2024-10-09 16h48.05.070032 -0600,
16,X,1,x,15,15,0,x,1,0.3141168000001926,0.1722414999967441,0,15,15,15,180.12427470000694,,,,,,,,,,180.11000660000718,180.12427470000694,180.12427470000694,180.3074111000169,180.3239176000061,,182.1084114999976,x,1,0.3141168000001926,0.1722414999967441,000015,001,2024-10-09_16h45.57.923,cpt_test,2024.2.2,60.02977477137804,2024-10-09 16h48.05.070032 -0600,
17,A,0,None,16,16,0,None,1,,,0,16,16,16,182.1226878000016,,,,,,,,,,182.1085828000214,182.1226878000016,182.1226878000016,182.30544320002082,182.32198170002084,,184.10708460002206,None,1,,,000015,001,2024-10-09_16h45.57.923,cpt_test,2024.2.2,60.02977477137804,2024-10-09 16h48.05.070032 -0600,
18,J,0,None,17,17,0,None,1,,,0,17,17,17,184.12554520001868,,,,,,,,,,184.1072449000203,184.12554520001868,184.12554520001868,184.30388170000515,184.33727320001344,,186.10480160001316,None,1,,,000015,001,2024-10-09_16h45.57.923,cpt_test,2024.2.2,60.02977477137804,2024-10-09 16h48.05.070032 -0600,
19,G,0,None,18,18,0,None,1,,,0,18,18,18,186.11954860002152,,,,,,,,,,186.1049564999994,186.11954860002152,186.11954860002152,186.3022922000091,186.31859270000132,,188.10323090001475,None,1,,,000015,001,2024-10-09_16h45.57.923,cpt_test,2024.2.2,60.02977477137804,2024-10-09 16h48.05.070032 -0600,
20,X,1,x,19,19,0,x,1,0.364867399999639,0.1413806999917142,0,19,19,19,188.11746160002076,,,,,,,,,,188.10337440000148,188.11746160002076,188.11746160002076,188.3009520000196,188.3172148000158,,190.10190989999683,x,1,0.364867399999639,0.1413806999917142,000015,001,2024-10-09_16h45.57.923,cpt_test,2024.2.2,60.02977477137804,2024-10-09 16h48.05.070032 -0600,
21,T,0,None,20,20,0,None,1,,,0,20,20,20,190.11956020002253,,,,,,,,,,190.10205970000243,190.11956020002253,190.11956020002253,190.31621499999892,190.33213210001122,,192.1165564999974,None,1,,,000015,001,2024-10-09_16h45.57.923,cpt_test,2024.2.2,60.02977477137804,2024-10-09 16h48.05.070032 -0600,
22,S,0,None,21,21,0,None,1,,,0,21,21,21,192.1353051000042,,,,,,,,,,192.11670350001077,192.1353051000042,192.1353051000042,192.313934100006,192.34710549999727,,194.11526270001195,None,1,,,000015,001,2024-10-09_16h45.57.923,cpt_test,2024.2.2,60.02977477137804,2024-10-09 16h48.05.070032 -0600,
23,X,1,x,22,22,0,x,1,0.32446299999719486,0.1429567000013776,0,22,22,22,194.1294923000096,,,,,,,,,,194.11543080001138,194.1294923000096,194.1294923000096,194.31262450001668,194.32872390002012,,196.11379010000383,x,1,0.32446299999719486,0.1429567000013776,000015,001,2024-10-09_16h45.57.923,cpt_test,2024.2.2,60.02977477137804,2024-10-09 16h48.05.070032 -0600,
24,S,0,None,23,23,0,None,1,,,0,23,23,23,196.12767580000218,,,,,,,,,,196.11398870000266,196.12767580000218,196.12767580000218,196.3108136000228,196.3273224000004,,198.1120308000245,None,1,,,000015,001,2024-10-09_16h45.57.923,cpt_test,2024.2.2,60.02977477137804,2024-10-09 16h48.05.070032 -0600,
25,G,0,None,24,24,0,None,1,,,0,24,24,24,198.1258947000024,,,,,,,,,,198.11220689999755,198.1258947000024,198.1258947000024,198.30939000000944,198.32561970001552,,200.11034870002186,None,1,,,000015,001,2024-10-09_16h45.57.923,cpt_test,2024.2.2,60.02977477137804,2024-10-09 16h48.05.070032 -0600,
26,O,0,None,25,25,0,x,0,0.3169163999846205,0.4981293000164442,0,25,25,25,200.12455030001001,,,,,,,,,,200.1105252999987,200.12455030001001,200.12455030001001,200.30782270000782,200.32418450000114,,202.10857100001886,x,0,0.3169163999846205,0.4981293000164442,000015,001,2024-10-09_16h45.57.923,cpt_test,2024.2.2,60.02977477137804,2024-10-09 16h48.05.070032 -0600,
27,P,0,None,26,26,0,None,1,,,0,26,26,26,202.12249170002178,,,,,,,,,,202.10874910000712,202.12249170002178,202.12249170002178,202.30596180001157,202.32222480000928,,204.10692120000022,None,1,,,000015,001,2024-10-09_16h45.57.923,cpt_test,2024.2.2,60.02977477137804,2024-10-09 16h48.05.070032 -0600,
28,Z,0,None,27,27,0,None,1,,,0,27,27,27,204.12099779999699,,,,,,,,,,204.10709130001487,204.12099779999699,204.12099779999699,204.30423690000316,204.32052790001035,,206.1054002000019,None,1,,,000015,001,2024-10-09_16h45.57.923,cpt_test,2024.2.2,60.02977477137804,2024-10-09 16h48.05.070032 -0600,
29,X,1,x,28,28,0,x,1,0.3363459999964107,0.1512153999938164,0,28,28,28,206.11957470001653,,,,,,,,,,206.10556210001232,206.11957470001653,206.11957470001653,206.30239430000074,206.31892060002428,,208.10335980000673,x,1,0.3363459999964107,0.1512153999938164,000015,001,2024-10-09_16h45.57.923,cpt_test,2024.2.2,60.02977477137804,2024-10-09 16h48.05.070032 -0600,
30,I,0,None,29,29,0,None,1,,,0,29,29,29,208.11785300000338,,,,,,,,,,208.1035153999983,208.11785300000338,208.11785300000338,208.30068149999715,208.317134300014,,210.10179670000798,None,1,,,000015,001,2024-10-09_16h45.57.923,cpt_test,2024.2.2,60.02977477137804,2024-10-09 16h48.05.070032 -0600,
31,F,0,None,30,30,0,None,1,,,0,30,30,30,210.1207830000203,,,,,,,,,,210.10195170002407,210.1207830000203,210.1207830000203,210.31619599999976,210.3322765000048,,212.10133649999625,None,1,,,000015,001,2024-10-09_16h45.57.923,cpt_test,2024.2.2,60.02977477137804,2024-10-09 16h48.05.070032 -0600,
32,M,0,None,31,31,0,None,1,,,0,31,31,31,212.12427080000634,,,,,,,,,,212.10155700001633,212.12427080000634,212.12427080000634,212.31445510001504,212.33049380002194,,214.1155614000163,None,1,,,000015,001,2024-10-09_16h45.57.923,cpt_test,2024.2.2,60.02977477137804,2024-10-09 16h48.05.070032 -0600,
33,T,0,None,32,32,0,None,1,,,0,32,32,32,214.1295440000249,,,,,,,,,,214.11574520001886,214.1295440000249,214.1295440000249,214.31274049999774,214.3287413000071,,216.11389790000976,None,1,,,000015,001,2024-10-09_16h45.57.923,cpt_test,2024.2.2,60.02977477137804,2024-10-09 16h48.05.070032 -0600,
34,A,0,None,33,33,0,None,1,,,0,33,33,33,216.12761840000167,,,,,,,,,,216.11407860001782,216.12761840000167,216.12761840000167,216.31078250001883,216.32747150000068,,218.1119330000074,None,1,,,000015,001,2024-10-09_16h45.57.923,cpt_test,2024.2.2,60.02977477137804,2024-10-09 16h48.05.070032 -0600,
35,E,0,None,34,34,0,None,1,,,0,34,34,34,218.12969880001037,,,,,,,,,,218.11211909999838,218.12969880001037,218.12969880001037,218.30912469999748,218.34227150000515,,220.1102921999991,None,1,,,000015,001,2024-10-09_16h45.57.923,cpt_test,2024.2.2,60.02977477137804,2024-10-09 16h48.05.070032 -0600,
36,X,1,x,35,35,0,x,1,0.5610861000022851,0.15342899999814108,0,35,35,35,220.1248758000147,,,,,,,,,,220.11044499999844,220.1248758000147,220.1248758000147,220.3075643000193,220.3239952000149,,222.10925300000235,x,1,0.5610861000022851,0.15342899999814108,000015,001,2024-10-09_16h45.57.923,cpt_test,2024.2.2,60.02977477137804,2024-10-09 16h48.05.070032 -0600,
37,A,0,None,36,36,0,None,1,,,0,36,36,36,222.122712100012,,,,,,,,,,222.10945350001566,222.122712100012,222.122712100012,222.30600070001674,222.32258010000805,,224.10723860000144,None,1,,,000015,001,2024-10-09_16h45.57.923,cpt_test,2024.2.2,60.02977477137804,2024-10-09 16h48.05.070032 -0600,
38,S,0,None,37,37,0,None,1,,,0,37,37,37,224.12128380002105,,,,,,,,,,224.1074203000171,224.12128380002105,224.12128380002105,224.30450980001478,224.32090640001115,,226.10566140001174,None,1,,,000015,001,2024-10-09_16h45.57.923,cpt_test,2024.2.2,60.02977477137804,2024-10-09 16h48.05.070032 -0600,
39,U,0,None,38,38,0,None,1,,,0,38,38,38,226.12650130002294,,,,,,,,,,226.1058434000006,226.12650130002294,226.12650130002294,226.3029327999975,226.33568670001114,,228.104229700024,None,1,,,000015,001,2024-10-09_16h45.57.923,cpt_test,2024.2.2,60.02977477137804,2024-10-09 16h48.05.070032 -0600,
40,U,0,None,39,39,0,None,1,,,0,39,39,39,228.11820080000325,,,,,,,,,,228.10444620001363,228.11820080000325,228.11820080000325,228.30123260000255,228.31763450001017,,230.10260140002356,None,1,,,000015,001,2024-10-09_16h45.57.923,cpt_test,2024.2.2,60.02977477137804,2024-10-09 16h48.05.070032 -0600,
41,Q,0,None,40,40,0,None,1,,,0,40,40,40,230.12206180000794,,,,,,,,,,230.10279370000353,230.12206180000794,230.12206180000794,230.31645949999802,230.3326457000221,,232.11705070000608,None,1,,,000015,001,2024-10-09_16h45.57.923,cpt_test,2024.2.2,60.02977477137804,2024-10-09 16h48.05.070032 -0600,
42,E,0,None,41,41,0,None,1,,,0,41,41,41,232.13120299999719,,,,,,,,,,232.11719469999662,232.13120299999719,232.13120299999719,232.31467920000432,232.33073800001875,,234.11570170000778,None,1,,,000015,001,2024-10-09_16h45.57.923,cpt_test,2024.2.2,60.02977477137804,2024-10-09 16h48.05.070032 -0600,
43,B,0,None,42,42,0,None,1,,,0,42,42,42,234.13379480000003,,,,,,,,,,234.1158742000116,234.13379480000003,234.13379480000003,234.31317930002115,234.34598840001854,,236.11442490000627,None,1,,,000015,001,2024-10-09_16h45.57.923,cpt_test,2024.2.2,60.02977477137804,2024-10-09 16h48.05.070032 -0600,
44,O,0,None,43,43,0,None,1,,,0,43,43,43,236.1283086000185,,,,,,,,,,236.11462840001332,236.1283086000185,236.1283086000185,236.31135160001577,236.32743480001227,,238.1123612000083,None,1,,,000015,001,2024-10-09_16h45.57.923,cpt_test,2024.2.2,60.02977477137804,2024-10-09 16h48.05.070032 -0600,
45,E,0,None,44,44,0,None,1,,,0,44,44,44,238.12630480001098,,,,,,,,,,238.11251240002457,238.12630480001098,238.12630480001098,238.30957290000515,238.32594690000406,,240.1102319000056,None,1,,,000015,001,2024-10-09_16h45.57.923,cpt_test,2024.2.2,60.02977477137804,2024-10-09 16h48.05.070032 -0600,
46,F,0,None,45,45,0,None,1,,,0,45,45,45,240.1246435000212,,,,,,,,,,240.11038260001806,240.1246435000212,240.1246435000212,240.30793030001223,240.32460829999764,,242.10934120000456,None,1,,,000015,001,2024-10-09_16h45.57.923,cpt_test,2024.2.2,60.02977477137804,2024-10-09 16h48.05.070032 -0600,
47,V,0,None,46,46,0,None,1,,,0,46,46,46,242.13001600001007,,,,,,,,,,242.10953650000738,242.13001600001007,242.13001600001007,242.30627749999985,242.33928139999625,,244.10677949999808,None,1,,,000015,001,2024-10-09_16h45.57.923,cpt_test,2024.2.2,60.02977477137804,2024-10-09 16h48.05.070032 -0600,
48,X,1,x,47,47,0,x,1,0.41281390000949614,0.18049169998266734,0,47,47,47,244.121702000004,,,,,,,,,,244.10693890001858,244.121702000004,244.121702000004,244.30464360001497,244.32127230000333,,246.10651360001066,x,1,0.41281390000949614,0.18049169998266734,000015,001,2024-10-09_16h45.57.923,cpt_test,2024.2.2,60.02977477137804,2024-10-09 16h48.05.070032 -0600,
49,X,1,x,48,48,0,x,1,0.5197497000044677,0.14052479999372736,0,48,48,48,246.1197621000174,,,,,,,,,,246.10673950001365,246.1197621000174,246.1197621000174,246.30293740000343,246.3194279000163,,248.1045477000007,x,1,0.5197497000044677,0.14052479999372736,000015,001,2024-10-09_16h45.57.923,cpt_test,2024.2.2,60.02977477137804,2024-10-09 16h48.05.070032 -0600,
50,C,0,None,49,49,0,None,1,,,0,49,49,49,248.12282940000296,,,,,,,,,,248.104728300008,248.12282940000296,248.12282940000296,248.3015750000195,248.33436330000404,,250.10218850002275,None,1,,,000015,001,2024-10-09_16h45.57.923,cpt_test,2024.2.2,60.02977477137804,2024-10-09 16h48.05.070032 -0600,
51,M,0,None,50,50,0,None,1,,,0,50,50,50,250.11695039999904,,,,,,,,,,250.10233280001557,250.11695039999904,250.11695039999904,250.29967220002436,250.3159508999961,,252.1021040000196,None,1,,,000015,001,2024-10-09_16h45.57.923,cpt_test,2024.2.2,60.02977477137804,2024-10-09 16h48.05.070032 -0600,
52,D,0,None,51,51,0,None,1,,,0,51,51,51,252.11481440000352,,,,,,,,,,252.1023378999962,252.11481440000352,252.11481440000352,252.31445530001656,252.31445530001656,,254.1162155000202,None,1,,,000015,001,2024-10-09_16h45.57.923,cpt_test,2024.2.2,60.02977477137804,2024-10-09 16h48.05.070032 -0600,
53,X,1,x,52,52,0,x,1,0.36968880001222715,0.1619940999953542,0,52,52,52,254.12980890000472,,,,,,,,,,254.11641360001522,254.12980890000472,254.12980890000472,254.31289370000013,254.32920380000724,,256.11473020000267,x,1,0.36968880001222715,0.1619940999953542,000015,001,2024-10-09_16h45.57.923,cpt_test,2024.2.2,60.02977477137804,2024-10-09 16h48.05.070032 -0600,
54,K,0,None,53,53,0,x,0,0.33600599999772385,0.14378040001611225,0,53,53,53,256.1365669000079,,,,,,,,,,256.1149508000235,256.1365669000079,256.1365669000079,256.3114744000195,256.344499800005,,258.11276600000565,x,0,0.33600599999772385,0.14378040001611225,000015,001,2024-10-09_16h45.57.923,cpt_test,2024.2.2,60.02977477137804,2024-10-09 16h48.05.070032 -0600,
55,X,1,x,54,54,0,x,1,0.7155232999939471,0.1306357999856118,0,54,54,54,258.1265726000129,,,,,,,,,,258.11296210001456,258.1265726000129,258.1265726000129,258.3095502000069,258.32613060000585,,260.11122630001046,x,1,0.7155232999939471,0.1306357999856118,000015,001,2024-10-09_16h45.57.923,cpt_test,2024.2.2,60.02977477137804,2024-10-09 16h48.05.070032 -0600,
56,N,0,None,55,55,0,None,1,,,0,55,55,55,260.13104990002466,,,,,,,,,,260.11142170001403,260.13104990002466,260.13104990002466,260.3081759000197,260.34104510000907,,262.1091869000229,None,1,,,000015,001,2024-10-09_16h45.57.923,cpt_test,2024.2.2,60.02977477137804,2024-10-09 16h48.05.070032 -0600,
57,M,0,None,56,56,0,None,1,,,0,56,56,56,262.12331140000606,,,,,,,,,,262.10936890001176,262.12331140000606,262.12331140000606,262.30667930000345,262.3228141000145,,264.10754389999784,None,1,,,000015,001,2024-10-09_16h45.57.923,cpt_test,2024.2.2,60.02977477137804,2024-10-09 16h48.05.070032 -0600,
58,X,1,x,57,57,0,x,1,0.36109590000705793,0.14873309998074546,0,57,57,57,264.1217305000173,,,,,,,,,,264.10771540002315,264.1217305000173,264.1217305000173,264.3047368999978,264.3210268999974,,266.1057619000203,x,1,0.36109590000705793,0.14873309998074546,000015,001,2024-10-09_16h45.57.923,cpt_test,2024.2.2,60.02977477137804,2024-10-09 16h48.05.070032 -0600,
59,F,0,None,58,58,0,None,1,,,0,58,58,58,266.1199007999967,,,,,,,,,,266.1059453000198,266.1199007999967,266.1199007999967,266.3032283000066,266.31930490001105,,268.10441610001726,None,1,,,000015,001,2024-10-09_16h45.57.923,cpt_test,2024.2.2,60.02977477137804,2024-10-09 16h48.05.070032 -0600,
60,A,0,None,59,59,0,None,1,,,0,59,59,59,268.11845000000903,,,,,,,,,,268.1046006999968,268.11845000000903,268.11845000000903,268.3013209000055,268.3179024000128,,270.1022474000056,None,1,,,000015,001,2024-10-09_16h45.57.923,cpt_test,2024.2.2,60.02977477137804,2024-10-09 16h48.05.070032 -0600,
61,X,1,x,60,60,0,x,1,0.4996367999992799,0.16735819997848012,0,60,60,60,270.1170037999982,,,,,,,,,,270.1023985000211,270.1170037999982,270.1170037999982,270.2998729000101,270.31608350001625,,272.1007669000246,x,1,0.4996367999992799,0.16735819997848012,000015,001,2024-10-09_16h45.57.923,cpt_test,2024.2.2,60.02977477137804,2024-10-09 16h48.05.070032 -0600,
62,V,0,None,61,61,0,None,1,,,0,61,61,61,272.1151707000099,,,,,,,,,,272.1009493000165,272.1151707000099,272.1151707000099,272.31453630002216,272.31453630002216,,274.1159400000179,None,1,,,000015,001,2024-10-09_16h45.57.923,cpt_test,2024.2.2,60.02977477137804,2024-10-09 16h48.05.070032 -0600,
63,U,0,None,62,62,0,None,1,,,0,62,62,62,274.1300423000066,,,,,,,,,,274.1161065000051,274.1300423000066,274.1300423000066,274.3130840000231,274.32969400001457,,276.1141542000114,None,1,,,000015,001,2024-10-09_16h45.57.923,cpt_test,2024.2.2,60.02977477137804,2024-10-09 16h48.05.070032 -0600,
64,M,0,None,63,63,0,None,1,,,0,63,63,63,276.1284488000092,,,,,,,,,,276.11430440002005,276.1284488000092,276.1284488000092,276.311915600003,276.3278637000185,,278.11274560002494,None,1,,,000015,001,2024-10-09_16h45.57.923,cpt_test,2024.2.2,60.02977477137804,2024-10-09 16h48.05.070032 -0600,
65,X,1,x,64,64,0,x,1,0.32990879999124445,0.179912499996135,0,64,64,64,278.1265478999994,,,,,,,,,,278.11294479999924,278.1265478999994,278.1265478999994,278.30984240002,278.3264951000165,,280.1111882000114,x,1,0.32990879999124445,0.179912499996135,000015,001,2024-10-09_16h45.57.923,cpt_test,2024.2.2,60.02977477137804,2024-10-09 16h48.05.070032 -0600,
66,A,0,None,65,65,0,None,1,,,0,65,65,65,280.12531530001434,,,,,,,,,,280.11135180000565,280.12531530001434,280.12531530001434,280.308165000024,280.32446390000405,,282.10901730001206,None,1,,,000015,001,2024-10-09_16h45.57.923,cpt_test,2024.2.2,60.02977477137804,2024-10-09 16h48.05.070032 -0600,
67,N,0,None,66,66,0,None,1,,,0,66,66,66,282.12361050001346,,,,,,,,,,282.1091755000234,282.12361050001346,282.12361050001346,282.3068443000084,282.3232449000061,,284.1072467000049,None,1,,,000015,001,2024-10-09_16h45.57.923,cpt_test,2024.2.2,60.02977477137804,2024-10-09 16h48.05.070032 -0600,
68,H,0,None,67,67,0,None,1,,,0,67,67,67,284.1258742000209,,,,,,,,,,284.1074056000216,284.1258742000209,284.1258742000209,284.3050727000227,284.3378953000065,,286.10586730000796,None,1,,,000015,001,2024-10-09_16h45.57.923,cpt_test,2024.2.2,60.02977477137804,2024-10-09 16h48.05.070032 -0600,
69,A,0,None,68,68,0,None,1,,,0,68,68,68,286.1199736999988,,,,,,,,,,286.1060274000047,286.1199736999988,286.1199736999988,286.30323750001844,286.31969709999976,,288.10440630000085,None,1,,,000015,001,2024-10-09_16h45.57.923,cpt_test,2024.2.2,60.02977477137804,2024-10-09 16h48.05.070032 -0600,
70,X,1,x,69,69,0,x,1,0.3902002000249922,0.1387244999932591,0,69,69,69,288.1183632000175,,,,,,,,,,288.1045713000058,288.1183632000175,288.1183632000175,288.30145560001256,288.3180161000055,,290.1027583999967,x,1,0.3902002000249922,0.1387244999932591,000015,001,2024-10-09_16h45.57.923,cpt_test,2024.2.2,60.02977477137804,2024-10-09 16h48.05.070032 -0600,
71,F,0,None,70,70,0,None,1,,,0,70,70,70,290.1166897000221,,,,,,,,,,290.1029497999989,290.1166897000221,290.1166897000221,290.2998967000167,290.316255200014,,292.10099420000915,None,1,,,000015,001,2024-10-09_16h45.57.923,cpt_test,2024.2.2,60.02977477137804,2024-10-09 16h48.05.070032 -0600,
72,N,0,None,71,71,0,None,1,,,0,71,71,71,292.11544150000555,,,,,,,,,,292.1011534999998,292.11544150000555,292.11544150000555,292.3148480000091,292.3148480000091,,294.1156885000237,None,1,,,000015,001,2024-10-09_16h45.57.923,cpt_test,2024.2.2,60.02977477137804,2024-10-09 16h48.05.070032 -0600,
73,K,0,None,72,72,0,None,1,,,0,72,72,72,294.1299900000158,,,,,,,,,,294.11583940000855,294.1299900000158,294.1299900000158,294.31356950002373,294.3294883000199,,296.1150093000033,None,1,,,000015,001,2024-10-09_16h45.57.923,cpt_test,2024.2.2,60.02977477137804,2024-10-09 16h48.05.070032 -0600,
74,Y,0,None,73,73,0,None,1,,,0,73,73,73,296.12859540001955,,,,,,,,,,296.11520090000704,296.12859540001955,296.12859540001955,296.31172399999923,296.32827930001076,,298.11241910001263,None,1,,,000015,001,2024-10-09_16h45.57.923,cpt_test,2024.2.2,60.02977477137804,2024-10-09 16h48.05.070032 -0600,
75,Y,0,None,74,74,0,None,1,,,0,74,74,74,298.1272437000007,,,,,,,,,,298.1125656000222,298.1272437000007,298.1272437000007,298.30998000002,298.3265129000065,,300.1116115000041,None,1,,,000015,001,2024-10-09_16h45.57.923,cpt_test,2024.2.2,60.02977477137804,2024-10-09 16h48.05.070032 -0600,
76,R,0,None,75,75,0,None,1,,,0,75,75,75,300.1253557000018,,,,,,,,,,300.11179290001746,300.1253557000018,300.1253557000018,300.3086258000112,300.3247642000206,,302.1100562000065,None,1,,,000015,001,2024-10-09_16h45.57.923,cpt_test,2024.2.2,60.02977477137804,2024-10-09 16h48.05.070032 -0600,
77,X,1,x,76,76,0,x,1,0.3178544999973383,0.14071519998833537,0,76,76,76,302.12375540001085,,,,,,,,,,302.1102480000118,302.12375540001085,302.12375540001085,302.3069020000112,302.3230050000129,,304.1083118999959,x,1,0.3178544999973383,0.14071519998833537,000015,001,2024-10-09_16h45.57.923,cpt_test,2024.2.2,60.02977477137804,2024-10-09 16h48.05.070032 -0600,
78,R,0,None,77,77,0,None,1,,,0,77,77,77,304.1221405999968,,,,,,,,,,304.10851590000675,304.1221405999968,304.1221405999968,304.3051265000249,304.32135060001747,,306.10639250001987,None,1,,,000015,001,2024-10-09_16h45.57.923,cpt_test,2024.2.2,60.02977477137804,2024-10-09 16h48.05.070032 -0600,
79,F,0,None,78,78,0,None,1,,,0,78,78,78,306.1205161999969,,,,,,,,,,306.10662690000026,306.1205161999969,306.1205161999969,306.30371460001334,306.31979100001627,,308.1045470999961,None,1,,,000015,001,2024-10-09_16h45.57.923,cpt_test,2024.2.2,60.02977477137804,2024-10-09 16h48.05.070032 -0600,
80,K,0,None,79,79,0,None,1,,,0,79,79,79,308.11881939999876,,,,,,,,,,308.10471179999877,308.11881939999876,308.11881939999876,308.3018987000105,308.3180598000181,,310.1025654000114,None,1,,,000015,001,2024-10-09_16h45.57.923,cpt_test,2024.2.2,60.02977477137804,2024-10-09 16h48.05.070032 -0600,
81,O,0,None,80,80,0,None,1,,,0,80,80,80,310.11699070001487,,,,,,,,,,310.102707300015,310.11699070001487,310.11699070001487,310.300023400021,310.3166189000185,,312.1010383000248,None,1,,,000015,001,2024-10-09_16h45.57.923,cpt_test,2024.2.2,60.02977477137804,2024-10-09 16h48.05.070032 -0600,
82,F,0,None,81,81,0,None,1,,,0,81,81,81,312.1155551999982,,,,,,,,,,312.1011873000243,312.1155551999982,312.1155551999982,312.31487550001475,312.31487550001475,,314.1164768000017,None,1,,,000015,001,2024-10-09_16h45.57.923,cpt_test,2024.2.2,60.02977477137804,2024-10-09 16h48.05.070032 -0600,
83,F,0,None,82,82,0,None,1,,,0,82,82,82,314.1305440000142,,,,,,,,,,314.11666060000425,314.1305440000142,314.1305440000142,314.31349050000426,314.3301594000077,,316.11498720000964,None,1,,,000015,001,2024-10-09_16h45.57.923,cpt_test,2024.2.2,60.02977477137804,2024-10-09 16h48.05.070032 -0600,
84,W,0,None,83,83,0,None,1,,,0,83,83,83,316.1370877000154,,,,,,,,,,316.1151713000145,316.1370877000154,316.1370877000154,316.31227660001605,316.3453794000088,,318.1127136000141,None,1,,,000015,001,2024-10-09_16h45.57.923,cpt_test,2024.2.2,60.02977477137804,2024-10-09 16h48.05.070032 -0600,
85,X,1,x,84,84,0,x,1,0.3626127000025008,0.16960419999668375,0,84,84,84,318.1270908000006,,,,,,,,,,318.1128718999971,318.1270908000006,318.1270908000006,318.3099738000019,318.32653220000793,,320.1111584000173,x,1,0.3626127000025008,0.16960419999668375,000015,001,2024-10-09_16h45.57.923,cpt_test,2024.2.2,60.02977477137804,2024-10-09 16h48.05.070032 -0600,
86,J,0,None,85,85,0,None,1,,,0,85,85,85,320.1255194999976,,,,,,,,,,320.11132830000133,320.1255194999976,320.1255194999976,320.30839440002455,320.3250014000223,,322.10968220001087,None,1,,,000015,001,2024-10-09_16h45.57.923,cpt_test,2024.2.2,60.02977477137804,2024-10-09 16h48.05.070032 -0600,
87,N,0,None,86,86,0,None,1,,,0,86,86,86,322.12401020000107,,,,,,,,,,322.10986050000065,322.12401020000107,322.12401020000107,322.30716050000046,322.3234648000216,,324.1081603000057,None,1,,,000015,001,2024-10-09_16h45.57.923,cpt_test,2024.2.2,60.02977477137804,2024-10-09 16h48.05.070032 -0600,
88,X,1,x,87,87,0,x,1,0.33436300000175834,0.15264699998078868,0,87,87,87,324.12199060001876,,,,,,,,,,324.1083228000207,324.12199060001876,324.12199060001876,324.30556810001144,324.32173799999873,,326.106286299997,x,1,0.33436300000175834,0.15264699998078868,000015,001,2024-10-09_16h45.57.923,cpt_test,2024.2.2,60.02977477137804,2024-10-09 16h48.05.070032 -0600,
89,T,0,None,88,88,0,None,1,,,0,88,88,88,326.12086460000137,,,,,,,,,,326.1064377000148,326.12086460000137,326.12086460000137,326.30385560001014,326.3199576000043,,328.10458480002126,None,1,,,000015,001,2024-10-09_16h45.57.923,cpt_test,2024.2.2,60.02977477137804,2024-10-09 16h48.05.070032 -0600,
90,I,0,None,89,89,0,None,1,,,0,89,89,89,328.11852990000625,,,,,,,,,,328.1047379000229,328.11852990000625,328.11852990000625,328.30197830000543,328.3183420000132,,330.10314220000873,None,1,,,000015,001,2024-10-09_16h45.57.923,cpt_test,2024.2.2,60.02977477137804,2024-10-09 16h48.05.070032 -0600,
91,P,0,None,90,90,0,None,1,,,0,90,90,90,330.117212800018,,,,,,,,,,330.10329379999894,330.117212800018,330.117212800018,330.3005541000166,330.31684100002167,,332.10149349999847,None,1,,,000015,001,2024-10-09_16h45.57.923,cpt_test,2024.2.2,60.02977477137804,2024-10-09 16h48.05.070032 -0600,
92,X,1,x,91,91,0,x,1,0.26909870002418756,0.15498889997252263,0,91,91,91,332.11555380001664,,,,,,,,,,332.1016601000156,332.11555380001664,332.11555380001664,332.31508560001384,332.31508560001384,,334.11698610000894,x,1,0.26909870002418756,0.15498889997252263,000015,001,2024-10-09_16h45.57.923,cpt_test,2024.2.2,60.02977477137804,2024-10-09 16h48.05.070032 -0600,
93,B,0,None,92,92,0,None,1,,,0,92,92,92,334.13047430000734,,,,,,,,,,334.11718690002454,334.13047430000734,334.13047430000734,334.31354800000554,334.3301648000197,,336.11542440002086,None,1,,,000015,001,2024-10-09_16h45.57.923,cpt_test,2024.2.2,60.02977477137804,2024-10-09 16h48.05.070032 -0600,
94,M,0,None,93,93,0,None,1,,,0,93,93,93,336.12920130000566,,,,,,,,,,336.1156167000008,336.12920130000566,336.12920130000566,336.31235290001496,336.32860249999794,,338.1129329999967,None,1,,,000015,001,2024-10-09_16h45.57.923,cpt_test,2024.2.2,60.02977477137804,2024-10-09 16h48.05.070032 -0600,
95,B,0,None,94,94,0,None,1,,,0,94,94,94,338.12734990002355,,,,,,,,,,338.11309660002007,338.12734990002355,338.12734990002355,338.31037940000533,338.32671350002056,,340.11221230000956,None,1,,,000015,001,2024-10-09_16h45.57.923,cpt_test,2024.2.2,60.02977477137804,2024-10-09 16h48.05.070032 -0600,
96,I,0,None,95,95,0,None,1,,,0,95,95,95,340.12539620001917,,,,,,,,,,340.11241770000197,340.12539620001917,340.12539620001917,340.308691800019,340.32539920002455,,342.11039790001814,None,1,,,000015,001,2024-10-09_16h45.57.923,cpt_test,2024.2.2,60.02977477137804,2024-10-09 16h48.05.070032 -0600,
97,X,1,x,96,96,0,x,1,0.3026794999896083,0.1599692000017967,0,96,96,96,342.12444520002464,,,,,,,,,,342.1105851000175,342.12444520002464,342.12444520002464,342.3071014000161,342.32386780000525,,344.1084480000136,x,1,0.3026794999896083,0.1599692000017967,000015,001,2024-10-09_16h45.57.923,cpt_test,2024.2.2,60.02977477137804,2024-10-09 16h48.05.070032 -0600,
98,J,0,None,97,97,0,None,1,,,0,97,97,97,344.12229960001423,,,,,,,,,,344.1086353000137,344.12229960001423,344.12229960001423,344.30543850001413,344.32197910000104,,346.1068426000129,None,1,,,000015,001,2024-10-09_16h45.57.923,cpt_test,2024.2.2,60.02977477137804,2024-10-09 16h48.05.070032 -0600,
99,X,1,x,98,98,0,x,1,0.5335485000105109,0.15373789999284782,0,98,98,98,346.1209238000156,,,,,,,,,,346.10700230000657,346.1209238000156,346.1209238000156,346.30387940001674,346.32058900000993,,348.10526270000264,x,1,0.5335485000105109,0.15373789999284782,000015,001,2024-10-09_16h45.57.923,cpt_test,2024.2.2,60.02977477137804,2024-10-09 16h48.05.070032 -0600,
100,U,0,None,99,99,0,None,1,,,0,99,99,99,348.1192685000133,,,,,,,,,,348.10545290002483,348.1192685000133,348.1192685000133,348.30231050000293,348.3185420000227,,350.10305760000483,None,1,,,000015,001,2024-10-09_16h45.57.923,cpt_test,2024.2.2,60.02977477137804,2024-10-09 16h48.05.070032 -0600,
101,D,0,None,100,100,0,None,1,,,0,100,100,100,350.1177318000118,,,,,,,,,,350.1032078000135,350.1177318000118,350.1177318000118,350.300430400006,350.31684159999713,,352.1013634999981,None,1,,,000015,001,2024-10-09_16h45.57.923,cpt_test,2024.2.2,60.02977477137804,2024-10-09 16h48.05.070032 -0600,
102,X,1,x,101,101,0,x,1,0.3691011999908369,0.13216070001362823,0,101,101,101,352.1158263999969,,,,,,,,,,352.1015079000208,352.1158263999969,352.1158263999969,352.315408800001,352.315408800001,,354.1163068000169,x,1,0.3691011999908369,0.13216070001362823,000015,001,2024-10-09_16h45.57.923,cpt_test,2024.2.2,60.02977477137804,2024-10-09 16h48.05.070032 -0600,
103,X,1,x,102,102,0,x,1,0.34950949999620207,0.14446899999165908,0,102,102,102,354.1307500000112,,,,,,,,,,354.116454300005,354.1307500000112,354.1307500000112,354.3141319999995,354.33052580000367,,356.1151813000033,x,1,0.34950949999620207,0.14446899999165908,000015,001,2024-10-09_16h45.57.923,cpt_test,2024.2.2,60.02977477137804,2024-10-09 16h48.05.070032 -0600,
104,N,0,None,103,103,0,None,1,,,0,103,103,103,356.12937930002226,,,,,,,,,,356.1153489999997,356.12937930002226,356.12937930002226,356.31258140000864,356.3288455000147,,358.1133447000175,None,1,,,000015,001,2024-10-09_16h45.57.923,cpt_test,2024.2.2,60.02977477137804,2024-10-09 16h48.05.070032 -0600,
105,U,0,None,104,104,0,None,1,,,0,104,104,104,358.12744540002313,,,,,,,,,,358.1135069000011,358.12744540002313,358.12744540002313,358.31079720001435,358.3270262000151,,360.1118875000102,None,1,,,000015,001,2024-10-09_16h45.57.923,cpt_test,2024.2.2,60.02977477137804,2024-10-09 16h48.05.070032 -0600,
106,T,0,None,105,105,0,None,1,,,0,105,105,105,360.1256853000086,,,,,,,,,,360.11207000000286,360.1256853000086,360.1256853000086,360.30912220000755,360.3251874000125,,362.1098664000165,None,1,,,000015,001,2024-10-09_16h45.57.923,cpt_test,2024.2.2,60.02977477137804,2024-10-09 16h48.05.070032 -0600,
107,W,0,None,106,106,0,None,1,,,0,106,106,106,362.1245756999997,,,,,,,,,,362.11002630001167,362.1245756999997,362.1245756999997,362.3076584000082,362.3238050000218,,364.1083988000173,None,1,,,000015,001,2024-10-09_16h45.57.923,cpt_test,2024.2.2,60.02977477137804,2024-10-09 16h48.05.070032 -0600,
108,N,0,None,107,107,0,None,1,,,0,107,107,107,364.1228081000154,,,,,,,,,,364.10856020002393,364.1228081000154,364.1228081000154,364.30560020002304,364.3221287000051,,366.1062959000119,None,1,,,000015,001,2024-10-09_16h45.57.923,cpt_test,2024.2.2,60.02977477137804,2024-10-09 16h48.05.070032 -0600,
109,R,0,None,108,108,0,None,1,,,0,108,108,108,366.12071980000474,,,,,,,,,,366.106434300018,366.12071980000474,366.12071980000474,366.3042608000105,366.3204863000137,,368.10506480000913,None,1,,,000015,001,2024-10-09_16h45.57.923,cpt_test,2024.2.2,60.02977477137804,2024-10-09 16h48.05.070032 -0600,
110,X,1,x,109,109,0,x,1,0.3531434999895282,0.16301869999733754,0,109,109,109,368.11947480001254,,,,,,,,,,368.1052079000219,368.11947480001254,368.11947480001254,368.30262640002184,368.3187203000125,,370.10304260000703,x,1,0.3531434999895282,0.16301869999733754,000015,001,2024-10-09_16h45.57.923,cpt_test,2024.2.2,60.02977477137804,2024-10-09 16h48.05.070032 -0600,
111,A,0,None,110,110,0,None,1,,,0,110,110,110,370.11767610002425,,,,,,,,,,370.1031891000166,370.11767610002425,370.11767610002425,370.3009367000195,370.31722710002214,,372.1019479999959,None,1,,,000015,001,2024-10-09_16h45.57.923,cpt_test,2024.2.2,60.02977477137804,2024-10-09 16h48.05.070032 -0600,
112,X,1,x,111,111,0,x,1,0.3850679000024684,0.1343658000114374,0,111,111,111,372.1159955000039,,,,,,,,,,372.102117500006,372.1159955000039,372.1159955000039,372.3155595000135,372.3155595000135,,374.1167813000211,x,1,0.3850679000024684,0.1343658000114374,000015,001,2024-10-09_16h45.57.923,cpt_test,2024.2.2,60.02977477137804,2024-10-09 16h48.05.070032 -0600,
113,G,0,None,112,112,0,None,1,,,0,112,112,112,374.13090119999833,,,,,,,,,,374.1169635000115,374.13090119999833,374.13090119999833,374.3140764000127,374.33062750002136,,376.11491190001834,None,1,,,000015,001,2024-10-09_16h45.57.923,cpt_test,2024.2.2,60.02977477137804,2024-10-09 16h48.05.070032 -0600,
114,O,0,None,113,113,0,None,1,,,0,113,113,113,376.12931590000517,,,,,,,,,,376.11506510002073,376.12931590000517,376.12931590000517,376.3126381000038,376.32891320000635,,378.11322650001966,None,1,,,000015,001,2024-10-09_16h45.57.923,cpt_test,2024.2.2,60.02977477137804,2024-10-09 16h48.05.070032 -0600,
115,U,0,None,114,114,0,None,1,,,0,114,114,114,378.12793310001143,,,,,,,,,,378.11337890001596,378.12793310001143,378.12793310001143,378.3108460000076,378.3271794000175,,380.1123053000192,None,1,,,000015,001,2024-10-09_16h45.57.923,cpt_test,2024.2.2,60.02977477137804,2024-10-09 16h48.05.070032 -0600,
116,X,1,x,115,115,0,x,1,0.3109763999818824,0.13922420001472346,0,115,115,115,380.12606740000774,,,,,,,,,,380.11247860000003,380.12606740000774,380.12606740000774,380.30941250000615,380.32538439999917,,382.11042070001713,x,1,0.3109763999818824,0.13922420001472346,000015,001,2024-10-09_16h45.57.923,cpt_test,2024.2.2,60.02977477137804,2024-10-09 16h48.05.070032 -0600,
117,X,1,x,116,116,0,x,1,0.5980328999867197,0.13984460002393462,0,116,116,116,382.12459439999657,,,,,,,,,,382.1105908000027,382.12459439999657,382.12459439999657,382.30733030001284,382.32388380001066,,384.1088218000077,x,1,0.5980328999867197,0.13984460002393462,000015,001,2024-10-09_16h45.57.923,cpt_test,2024.2.2,60.02977477137804,2024-10-09 16h48.05.070032 -0600,
118,C,0,None,117,117,0,None,1,,,0,117,117,117,384.12280170002487,,,,,,,,,,384.1090113000246,384.12280170002487,384.12280170002487,384.30600380001124,384.32227380000404,,386.10703420001664,None,1,,,000015,001,2024-10-09_16h45.57.923,cpt_test,2024.2.2,60.02977477137804,2024-10-09 16h48.05.070032 -0600,
119,A,0,None,118,118,0,None,1,,,0,118,118,118,386.1213131000113,,,,,,,,,,386.1072020000138,386.1213131000113,386.1213131000113,386.30432720002136,386.32074809999904,,388.10526290000416,None,1,,,000015,001,2024-10-09_16h45.57.923,cpt_test,2024.2.2,60.02977477137804,2024-10-09 16h48.05.070032 -0600,
120,X,1,x,119,119,0,x,1,0.27569880001829006,0.15824379998957738,0,119,119,119,388.11945620001643,,,,,,,,,,388.105415900005,388.11945620001643,388.11945620001643,388.30273500000476,388.31899420000263,,390.1036282000132,x,1,0.27569880001829006,0.15824379998957738,000015,001,2024-10-09_16h45.57.923,cpt_test,2024.2.2,60.02977477137804,2024-10-09 16h48.05.070032 -0600,
121,H,0,None,120,120,0,None,1,,,0,120,120,120,390.1180397999997,,,,,,,,,,390.1037894000183,390.1180397999997,390.1180397999997,390.3012953000143,390.3173609000223,,392.1020957000146,None,1,,,000015,001,2024-10-09_16h45.57.923,cpt_test,2024.2.2,60.02977477137804,2024-10-09 16h48.05.070032 -0600,
122,M,0,None,121,121,0,None,1,,,0,121,121,121,392.11606890000985,,,,,,,,,,392.1022531000199,392.11606890000985,392.11606890000985,392.31574270001147,392.31574270001147,,394.11679930001264,None,1,,,000015,001,2024-10-09_16h45.57.923,cpt_test,2024.2.2,60.02977477137804,2024-10-09 16h48.05.070032 -0600,
123,V,0,None,122,122,0,None,1,,,0,122,122,122,394.13113580000936,,,,,,,,,,394.11694730000454,394.13113580000936,394.13113580000936,394.3142917000223,394.3305081000144,,396.11588210001355,None,1,,,000015,001,2024-10-09_16h45.57.923,cpt_test,2024.2.2,60.02977477137804,2024-10-09 16h48.05.070032 -0600,
124,K,0,None,123,123,0,None,1,,,0,123,123,123,396.12930590001633,,,,,,,,,,396.1160691000114,396.12930590001633,396.12930590001633,396.31259560000035,396.3291667000158,,398.1144347000227,None,1,,,000015,001,2024-10-09_16h45.57.923,cpt_test,2024.2.2,60.02977477137804,2024-10-09 16h48.05.070032 -0600,
125,G,0,None,124,124,0,None,1,,,0,124,124,124,398.12799880001694,,,,,,,,,,398.1146305000002,398.12799880001694,398.12799880001694,398.3109820999962,398.32754759999807,,400.1125089999987,None,1,,,000015,001,2024-10-09_16h45.57.923,cpt_test,2024.2.2,60.02977477137804,2024-10-09 16h48.05.070032 -0600,
126,A,0,None,125,125,0,None,1,,,0,125,125,125,400.1263917000033,,,,,,,,,,400.1127172000124,400.1263917000033,400.1263917000033,400.3093599000131,400.32583050001995,,402.1104989000014,None,1,,,000015,001,2024-10-09_16h45.57.923,cpt_test,2024.2.2,60.02977477137804,2024-10-09 16h48.05.070032 -0600,
127,X,1,x,126,126,0,x,1,0.2766090000222903,0.32083939999574795,0,126,126,126,402.1247804000159,,,,,,,,,,402.1106761000119,402.1247804000159,402.1247804000159,402.30754270000034,402.3239702999999,,404.1088143000088,x,1,0.2766090000222903,0.32083939999574795,000015,001,2024-10-09_16h45.57.923,cpt_test,2024.2.2,60.02977477137804,2024-10-09 16h48.05.070032 -0600,
128,N,0,None,127,127,0,None,1,,,0,127,127,127,404.1230836000177,,,,,,,,,,404.1089998000243,404.1230836000177,404.1230836000177,404.3061881000176,404.32230480000726,,406.1075202000211,None,1,,,000015,001,2024-10-09_16h45.57.923,cpt_test,2024.2.2,60.02977477137804,2024-10-09 16h48.05.070032 -0600,
129,Y,0,None,128,128,0,None,1,,,0,128,128,128,406.1213660000067,,,,,,,,,,406.10770350001985,406.1213660000067,406.1213660000067,406.304535400006,406.320824000024,,408.1058778000006,None,1,,,000015,001,2024-10-09_16h45.57.923,cpt_test,2024.2.2,60.02977477137804,2024-10-09 16h48.05.070032 -0600,
130,W,0,None,129,129,0,None,1,,,0,129,129,129,408.11987240001326,,,,,,,,,,408.10608590001357,408.11987240001326,408.11987240001326,408.302774700016,408.319461600011,,410.1033604000113,None,1,,,000015,001,2024-10-09_16h45.57.923,cpt_test,2024.2.2,60.02977477137804,2024-10-09 16h48.05.070032 -0600,
131,L,0,None,130,130,0,None,1,,,0,130,130,130,410.1179662000213,,,,,,,,,,410.10350080000353,410.1179662000213,410.1179662000213,410.3012299000111,410.3174606000248,,412.1017417999974,None,1,,,000015,001,2024-10-09_16h45.57.923,cpt_test,2024.2.2,60.02977477137804,2024-10-09 16h48.05.070032 -0600,
132,F,0,None,131,131,0,None,1,,,0,131,131,131,412.11661710002227,,,,,,,,,,412.1018868999963,412.11661710002227,412.11661710002227,412.31598030001624,412.31598030001624,,414.1168683000142,None,1,,,000015,001,2024-10-09_16h45.57.923,cpt_test,2024.2.2,60.02977477137804,2024-10-09 16h48.05.070032 -0600,
133,E,0,None,132,132,0,None,1,,,0,132,132,132,414.13141210001777,,,,,,,,,,414.1170137000154,414.13141210001777,414.13141210001777,414.3147491000127,414.33102860001964,,416.115274700016,None,1,,,000015,001,2024-10-09_16h45.57.923,cpt_test,2024.2.2,60.02977477137804,2024-10-09 16h48.05.070032 -0600,
134,L,0,None,133,133,0,None,1,,,0,133,133,133,416.1297870000126,,,,,,,,,,416.11541720002424,416.1297870000126,416.1297870000126,416.312820000021,416.3294306000171,,418.11366430000635,None,1,,,000015,001,2024-10-09_16h45.57.923,cpt_test,2024.2.2,60.02977477137804,2024-10-09 16h48.05.070032 -0600,
135,K,0,None,134,134,0,None,1,,,0,134,134,134,418.1280294000171,,,,,,,,,,418.1138194000232,418.1280294000171,418.1280294000171,418.3113069999963,418.3275726000138,,420.11239160000696,None,1,,,000015,001,2024-10-09_16h45.57.923,cpt_test,2024.2.2,60.02977477137804,2024-10-09 16h48.05.070032 -0600,
136,Q,0,None,135,135,0,None,1,,,0,135,135,135,420.12632870001835,,,,,,,,,,420.1125529000128,420.12632870001835,420.12632870001835,420.30987409999943,420.3262032000057,,422.1110333999968,None,1,,,000015,001,2024-10-09_16h45.57.923,cpt_test,2024.2.2,60.02977477137804,2024-10-09 16h48.05.070032 -0600,
137,X,1,x,136,136,0,x,1,0.31874749998678453,0.1558450000011362,0,136,136,136,422.1247992000135,,,,,,,,,,422.111192100012,422.1247992000135,422.1247992000135,422.3081870000169,422.32457170001,,424.1091025000205,x,1,0.31874749998678453,0.1558450000011362,000015,001,2024-10-09_16h45.57.923,cpt_test,2024.2.2,60.02977477137804,2024-10-09 16h48.05.070032 -0600,
138,J,0,None,137,137,0,None,1,,,0,137,137,137,424.123244300019,,,,,,,,,,424.1092813000141,424.123244300019,424.123244300019,424.30618710001,424.3226988000097,,426.1073189000017,None,1,,,000015,001,2024-10-09_16h45.57.923,cpt_test,2024.2.2,60.02977477137804,2024-10-09 16h48.05.070032 -0600,
139,X,1,x,138,138,0,x,1,0.32058510000933893,0.14387169998371974,0,138,138,138,426.1214963000093,,,,,,,,,,426.10748510001577,426.1214963000093,426.1214963000093,426.3047255999991,426.32115560001694,,428.10551550000673,x,1,0.32058510000933893,0.14387169998371974,000015,001,2024-10-09_16h45.57.923,cpt_test,2024.2.2,60.02977477137804,2024-10-09 16h48.05.070032 -0600,
140,E,0,None,139,139,0,None,1,,,0,139,139,139,428.1197824999981,,,,,,,,,,428.105676200008,428.1197824999981,428.1197824999981,428.30298130001756,428.31948000000557,,430.10368680002284,None,1,,,000015,001,2024-10-09_16h45.57.923,cpt_test,2024.2.2,60.02977477137804,2024-10-09 16h48.05.070032 -0600,
141,T,0,None,140,140,0,None,1,,,0,140,140,140,430.1181554000068,,,,,,,,,,430.10382440002286,430.1181554000068,430.1181554000068,430.30153890000656,430.317721600004,,432.1020712000027,None,1,,,000015,001,2024-10-09_16h45.57.923,cpt_test,2024.2.2,60.02977477137804,2024-10-09 16h48.05.070032 -0600,
142,X,1,x,141,141,0,x,1,0.2823875999893062,0.25083150001592003,0,141,141,141,432.116795000009,,,,,,,,,,432.10223300001235,432.116795000009,432.116795000009,432.31609279999975,432.31609279999975,,434.1174630000023,x,1,0.2823875999893062,0.25083150001592003,000015,001,2024-10-09_16h45.57.923,cpt_test,2024.2.2,60.02977477137804,2024-10-09 16h48.05.070032 -0600,
143,Q,0,None,142,142,0,None,1,,,0,142,142,142,434.13143649999984,,,,,,,,,,434.1176279000065,434.13143649999984,434.13143649999984,434.31484140001703,434.33119700002135,,436.1157779000059,None,1,,,000015,001,2024-10-09_16h45.57.923,cpt_test,2024.2.2,60.02977477137804,2024-10-09 16h48.05.070032 -0600,
144,V,0,None,143,143,0,None,1,,,0,143,143,143,436.1300993000041,,,,,,,,,,436.1159493000014,436.1300993000041,436.1300993000041,436.312942700024,436.32946150001953,,438.1140709000174,None,1,,,000015,001,2024-10-09_16h45.57.923,cpt_test,2024.2.2,60.02977477137804,2024-10-09 16h48.05.070032 -0600,
145,Y,0,None,144,144,0,None,1,,,0,144,144,144,438.1280784000119,,,,,,,,,,438.11422310001217,438.1280784000119,438.1280784000119,438.31139250000706,438.3279242000135,,440.1122409000236,None,1,,,000015,001,2024-10-09_16h45.57.923,cpt_test,2024.2.2,60.02977477137804,2024-10-09 16h48.05.070032 -0600,
146,O,0,None,145,145,0,None,1,,,0,145,145,145,440.1264396000188,,,,,,,,,,440.11239960000967,440.1264396000188,440.1264396000188,440.30994600002305,440.3261856000172,,442.1110078000056,None,1,,,000015,001,2024-10-09_16h45.57.923,cpt_test,2024.2.2,60.02977477137804,2024-10-09 16h48.05.070032 -0600,
147,T,0,None,146,146,0,None,1,,,0,146,146,146,442.12499420001404,,,,,,,,,,442.1111674999993,442.12499420001404,442.12499420001404,442.3082528000232,442.3246899000078,,444.1093546000193,None,1,,,000015,001,2024-10-09_16h45.57.923,cpt_test,2024.2.2,60.02977477137804,2024-10-09 16h48.05.070032 -0600,
148,X,1,x,147,147,0,x,1,0.3503318000002764,0.12561250000726432,0,147,147,147,444.1235848000215,,,,,,,,,,444.10952650001855,444.1235848000215,444.1235848000215,444.30644670000765,444.32255110002006,,446.1075619000185,x,1,0.3503318000002764,0.12561250000726432,000015,001,2024-10-09_16h45.57.923,cpt_test,2024.2.2,60.02977477137804,2024-10-09 16h48.05.070032 -0600,
149,T,0,None,148,148,0,None,1,,,0,148,148,148,446.1214964000101,,,,,,,,,,446.10772729999735,446.1214964000101,446.1214964000101,446.304936200002,446.32131520000985,,448.10593920000247,None,1,,,000015,001,2024-10-09_16h45.57.923,cpt_test,2024.2.2,60.02977477137804,2024-10-09 16h48.05.070032 -0600,
150,S,0,None,149,149,0,None,1,,,0,149,149,149,448.12005250001675,,,,,,,,,,448.10609240000485,448.12005250001675,448.12005250001675,448.3029714000004,448.31945810001343,,450.1040895000042,None,1,,,000015,001,2024-10-09_16h45.57.923,cpt_test,2024.2.2,60.02977477137804,2024-10-09 16h48.05.070032 -0600,
151,L,0,None,150,150,0,None,1,,,0,150,150,150,450.1184904999973,,,,,,,,,,450.1042457000003,450.1184904999973,450.1184904999973,450.30165219999617,450.318091299996,,452.1027738999983,None,1,,,000015,001,2024-10-09_16h45.57.923,cpt_test,2024.2.2,60.02977477137804,2024-10-09 16h48.05.070032 -0600,
152,V,0,None,151,151,0,None,1,,,0,151,151,151,452.11708880000515,,,,,,,,,,452.10292250002385,452.11708880000515,452.11708880000515,452.29963940000744,452.31633000000147,454.1147542000108,454.1171859000169,None,1,,,000015,001,2024-10-09_16h45.57.923,cpt_test,2024.2.2,60.02977477137804,2024-10-09 16h48.05.070032 -0600,
153,C,0,None,152,152,0,None,1,,,0,152,152,152,454.13203080001404,,,,,,,,,,454.1173207999964,454.13203080001404,454.13203080001404,454.3151674999972,454.331353400019,,456.11577679999755,None,1,,,000015,001,2024-10-09_16h45.57.923,cpt_test,2024.2.2,60.02977477137804,2024-10-09 16h48.05.070032 -0600,
154,U,0,None,153,153,0,None,1,,,0,153,153,153,456.1299386000028,,,,,,,,,,456.1159135000198,456.1299386000028,456.1299386000028,456.3131135000149,456.3296112000244,,458.1145308999985,None,1,,,000015,001,2024-10-09_16h45.57.923,cpt_test,2024.2.2,60.02977477137804,2024-10-09 16h48.05.070032 -0600,
155,X,1,x,154,154,0,x,1,0.31369290000293404,0.12498900000355206,0,154,154,154,458.12836230001994,,,,,,,,,,458.11471760002314,458.12836230001994,458.12836230001994,458.3115020999976,458.32811299999594,,460.11290000000736,x,1,0.31369290000293404,0.12498900000355206,000015,001,2024-10-09_16h45.57.923,cpt_test,2024.2.2,60.02977477137804,2024-10-09 16h48.05.070032 -0600,
156,X,1,x,155,155,0,x,1,0.4309163999860175,0.13002529999357648,0,155,155,155,460.12693150000996,,,,,,,,,,460.11308910002117,460.12693150000996,460.12693150000996,460.3098879000172,460.3260969000112,,462.11080560000846,x,1,0.4309163999860175,0.13002529999357648,000015,001,2024-10-09_16h45.57.923,cpt_test,2024.2.2,60.02977477137804,2024-10-09 16h48.05.070032 -0600,
157,L,0,None,156,156,0,None,1,,,0,156,156,156,462.12505699999747,,,,,,,,,,462.1109623000084,462.12505699999747,462.12505699999747,462.30819410001277,462.32459120001295,,464.1098505000118,None,1,,,000015,001,2024-10-09_16h45.57.923,cpt_test,2024.2.2,60.02977477137804,2024-10-09 16h48.05.070032 -0600,
158,W,0,None,157,157,0,None,1,,,0,157,157,157,464.1234939999995,,,,,,,,,,464.11002940000617,464.1234939999995,464.1234939999995,464.3066755000036,464.3230817000149,,466.10801290001837,None,1,,,000015,001,2024-10-09_16h45.57.923,cpt_test,2024.2.2,60.02977477137804,2024-10-09 16h48.05.070032 -0600,
159,A,0,None,158,158,0,None,1,,,0,158,158,158,466.1217804000189,,,,,,,,,,466.1081910000066,466.1217804000189,466.1217804000189,466.3048669999989,466.3214741999982,,468.1062796000042,None,1,,,000015,001,2024-10-09_16h45.57.923,cpt_test,2024.2.2,60.02977477137804,2024-10-09 16h48.05.070032 -0600,
160,X,1,x,159,159,0,x,1,0.3114204999874346,0.13950950000435114,0,159,159,159,468.1202583000122,,,,,,,,,,468.106448800012,468.1202583000122,468.1202583000122,468.3031701,468.3198281000077,,470.10478120000334,x,1,0.3114204999874346,0.13950950000435114,000015,001,2024-10-09_16h45.57.923,cpt_test,2024.2.2,60.02977477137804,2024-10-09 16h48.05.070032 -0600,
161,A,0,None,160,160,0,None,1,,,0,160,160,160,470.1184637999977,,,,,,,,,,470.1049500000081,470.1184637999977,470.1184637999977,470.30188850002014,470.31835360001423,,472.10269280002103,None,1,,,000015,001,2024-10-09_16h45.57.923,cpt_test,2024.2.2,60.02977477137804,2024-10-09 16h48.05.070032 -0600,
162,M,0,None,161,161,0,None,1,,,0,161,161,161,472.11688420001883,,,,,,,,,,472.1028996000241,472.11688420001883,472.11688420001883,472.3001160999993,472.3168326000159,,474.1007685000077,None,1,,,000015,001,2024-10-09_16h45.57.923,cpt_test,2024.2.2,60.02977477137804,2024-10-09 16h48.05.070032 -0600,
163,X,1,x,162,162,0,x,1,0.39509309999994,0.1248475999746006,0,162,162,162,474.1155301000108,,,,,,,,,,474.10092230001464,474.1155301000108,474.1155301000108,474.3149031000212,474.3149031000212,,476.11571320000803,x,1,0.39509309999994,0.1248475999746006,000015,001,2024-10-09_16h45.57.923,cpt_test,2024.2.2,60.02977477137804,2024-10-09 16h48.05.070032 -0600,
164,X,1,x,163,163,0,x,1,0.6064083999954164,0.11315670001204126,0,163,163,163,476.1303031000134,,,,,,,,,,476.11586400002125,476.1303031000134,476.1303031000134,476.3134480000008,476.3296621000045,,478.1144465999969,x,1,0.6064083999954164,0.11315670001204126,000015,001,2024-10-09_16h45.57.923,cpt_test,2024.2.2,60.02977477137804,2024-10-09 16h48.05.070032 -0600,
165,K,0,None,164,164,0,None,1,,,0,164,164,164,478.1289148000069,,,,,,,,,,478.1146031000244,478.1289148000069,478.1289148000069,478.31177160001243,478.32830829999875,,480.11327100000926,None,1,,,000015,001,2024-10-09_16h45.57.923,cpt_test,2024.2.2,60.02977477137804,2024-10-09 16h48.05.070032 -0600,
166,X,1,x,165,165,0,x,1,0.398156499984907,0.1064368000079412,0,165,165,165,480.127143300022,,,,,,,,,,480.1134598000208,480.127143300022,480.127143300022,480.31018970001605,480.3267147000006,,482.11117690001265,x,1,0.398156499984907,0.1064368000079412,000015,001,2024-10-09_16h45.57.923,cpt_test,2024.2.2,60.02977477137804,2024-10-09 16h48.05.070032 -0600,
167,M,0,None,166,166,0,None,1,,,0,166,166,166,482.1255107000179,,,,,,,,,,482.11135310001555,482.1255107000179,482.1255107000179,482.30878400002257,482.3250299000065,,484.10950059999595,None,1,,,000015,001,2024-10-09_16h45.57.923,cpt_test,2024.2.2,60.02977477137804,2024-10-09 16h48.05.070032 -0600,
168,X,1,x,167,167,0,x,1,0.44847519998438656,0.11621810001088306,0,167,167,167,484.1238290000183,,,,,,,,,,484.10965970001416,484.1238290000183,484.1238290000183,484.30694290000247,484.3234077000234,,486.10772810000344,x,1,0.44847519998438656,0.11621810001088306,000015,001,2024-10-09_16h45.57.923,cpt_test,2024.2.2,60.02977477137804,2024-10-09 16h48.05.070032 -0600,
169,A,0,None,168,168,0,None,1,,,0,168,168,168,486.12222350001684,,,,,,,,,,486.10789179999847,486.12222350001684,486.12222350001684,486.3053673999966,486.32174060001853,,488.10629240001435,None,1,,,000015,001,2024-10-09_16h45.57.923,cpt_test,2024.2.2,60.02977477137804,2024-10-09 16h48.05.070032 -0600,
170,X,1,x,169,169,0,x,1,0.3365932999877259,0.13185960002010688,0,169,169,169,488.1206175000116,,,,,,,,,,488.10644140001386,488.1206175000116,488.1206175000116,488.3037414000137,488.32000470001367,,490.10489660000894,x,1,0.3365932999877259,0.13185960002010688,000015,001,2024-10-09_16h45.57.923,cpt_test,2024.2.2,60.02977477137804,2024-10-09 16h48.05.070032 -0600,
171,L,0,None,170,170,0,None,1,,,0,170,170,170,490.11879040001077,,,,,,,,,,490.10509399999864,490.11879040001077,490.11879040001077,490.3020446000155,490.31836570001906,,492.1040613000223,None,1,,,000015,001,2024-10-09_16h45.57.923,cpt_test,2024.2.2,60.02977477137804,2024-10-09 16h48.05.070032 -0600,
172,E,0,None,171,171,0,None,1,,,0,171,171,171,492.11690900000394,,,,,,,,,,492.10427229999914,492.11690900000394,492.11690900000394,492.30014830001164,492.3167521000141,,494.1018784000189,None,1,,,000015,001,2024-10-09_16h45.57.923,cpt_test,2024.2.2,60.02977477137804,2024-10-09 16h48.05.070032 -0600,
173,T,0,None,172,172,0,None,1,,,0,172,172,172,494.11552350001875,,,,,,,,,,494.1020792000054,494.11552350001875,494.11552350001875,494.31497980002314,494.31497980002314,,496.11730900002294,None,1,,,000015,001,2024-10-09_16h45.57.923,cpt_test,2024.2.2,60.02977477137804,2024-10-09 16h48.05.070032 -0600,
174,F,0,None,173,173,0,None,1,,,0,173,173,173,496.13042070000665,,,,,,,,,,496.1175115000224,496.13042070000665,496.13042070000665,496.31359580002027,496.3302352000028,,498.1148545000178,None,1,,,000015,001,2024-10-09_16h45.57.923,cpt_test,2024.2.2,60.02977477137804,2024-10-09 16h48.05.070032 -0600,
175,M,0,None,174,174,0,None,1,,,0,174,174,174,498.12876459999825,,,,,,,,,,498.1150302000169,498.12876459999825,498.12876459999825,498.3122253000038,498.328376200021,,500.113022000005,None,1,,,000015,001,2024-10-09_16h45.57.923,cpt_test,2024.2.2,60.02977477137804,2024-10-09 16h48.05.070032 -0600,
176,Q,0,None,175,175,0,None,1,,,0,175,175,175,500.12745160001214,,,,,,,,,,500.1131677000085,500.12745160001214,500.12745160001214,500.31057130001136,500.3268218000012,,502.1119147000136,None,1,,,000015,001,2024-10-09_16h45.57.923,cpt_test,2024.2.2,60.02977477137804,2024-10-09 16h48.05.070032 -0600,
177,M,0,None,176,176,0,None,1,,,0,176,176,176,502.1257930000138,,,,,,,,,,502.1120784000086,502.1257930000138,502.1257930000138,502.30881539999973,502.32523590000346,,504.1096790000156,None,1,,,000015,001,2024-10-09_16h45.57.923,cpt_test,2024.2.2,60.02977477137804,2024-10-09 16h48.05.070032 -0600,
178,X,1,x,177,177,0,x,1,0.34393510001245886,0.1581636999908369,0,177,177,177,504.12405530002434,,,,,,,,,,504.1098314000119,504.12405530002434,504.12405530002434,504.3069953000231,504.3233336000121,,506.10784370001056,x,1,0.34393510001245886,0.1581636999908369,000015,001,2024-10-09_16h45.57.923,cpt_test,2024.2.2,60.02977477137804,2024-10-09 16h48.05.070032 -0600,
179,V,0,None,178,178,0,None,1,,,0,178,178,178,506.1224454000185,,,,,,,,,,506.1080140999984,506.1224454000185,506.1224454000185,506.3056542999984,506.32179929999984,,508.10696720000124,None,1,,,000015,001,2024-10-09_16h45.57.923,cpt_test,2024.2.2,60.02977477137804,2024-10-09 16h48.05.070032 -0600,
180,M,0,None,179,179,0,None,1,,,0,179,179,179,508.12082710000686,,,,,,,,,,508.1071533000213,508.12082710000686,508.12082710000686,508.3039570999972,508.32025540000177,,510.1055810000107,None,1,,,000015,001,2024-10-09_16h45.57.923,cpt_test,2024.2.2,60.02977477137804,2024-10-09 16h48.05.070032 -0600,
181,P,0,None,180,180,0,None,1,,,0,180,180,180,510.1189957000024,,,,,,,,,,510.1057717000076,510.1189957000024,510.1189957000024,510.3021515000146,510.31844280002406,,512.1028020000085,None,1,,,000015,001,2024-10-09_16h45.57.923,cpt_test,2024.2.2,60.02977477137804,2024-10-09 16h48.05.070032 -0600,
182,K,0,None,181,181,0,None,1,,,0,181,181,181,512.1171172000177,,,,,,,,,,512.1029447000183,512.1171172000177,512.1171172000177,512.300766100001,512.3169244000164,,514.1014964000206,None,1,,,000015,001,2024-10-09_16h45.57.923,cpt_test,2024.2.2,60.02977477137804,2024-10-09 16h48.05.070032 -0600,
183,V,0,None,182,182,0,None,1,,,0,182,182,182,514.1155656000192,,,,,,,,,,514.1016509000037,514.1155656000192,514.1155656000192,514.3153455000138,514.3153455000138,,516.1175098000094,None,1,,,000015,001,2024-10-09_16h45.57.923,cpt_test,2024.2.2,60.02977477137804,2024-10-09 16h48.05.070032 -0600,
184,G,0,None,183,183,0,None,1,,,0,183,183,183,516.1308179000043,,,,,,,,,,516.1177268000029,516.1308179000043,516.1308179000043,516.3139439000224,516.3302489000198,,518.1151954000234,None,1,,,000015,001,2024-10-09_16h45.57.923,cpt_test,2024.2.2,60.02977477137804,2024-10-09 16h48.05.070032 -0600,
185,L,0,None,184,184,0,None,1,,,0,184,184,184,518.1288276000123,,,,,,,,,,518.1153751000238,518.1288276000123,518.1288276000123,518.3120201000129,518.328645600006,,520.1139219000179,None,1,,,000015,001,2024-10-09_16h45.57.923,cpt_test,2024.2.2,60.02977477137804,2024-10-09 16h48.05.070032 -0600,
186,Q,0,None,185,185,0,None,1,,,0,185,185,185,520.1275500000047,,,,,,,,,,520.1141052000166,520.1275500000047,520.1275500000047,520.3104738999973,520.3270122999966,,522.111781900021,None,1,,,000015,001,2024-10-09_16h45.57.923,cpt_test,2024.2.2,60.02977477137804,2024-10-09 16h48.05.070032 -0600,
187,N,0,None,186,186,0,None,1,,,0,186,186,186,522.1257225000008,,,,,,,,,,522.111941900017,522.1257225000008,522.1257225000008,522.3090178999992,522.3251860000018,,524.1106205999968,None,1,,,000015,001,2024-10-09_16h45.57.923,cpt_test,2024.2.2,60.02977477137804,2024-10-09 16h48.05.070032 -0600,
188,K,0,None,187,187,0,None,1,,,0,187,187,187,524.1240815000201,,,,,,,,,,524.1108118999982,524.1240815000201,524.1240815000201,524.3073861000012,524.3235758000228,,526.1085493999999,None,1,,,000015,001,2024-10-09_16h45.57.923,cpt_test,2024.2.2,60.02977477137804,2024-10-09 16h48.05.070032 -0600,
189,C,0,None,188,188,0,None,1,,,0,188,188,188,526.1225950000226,,,,,,,,,,526.1087155000132,526.1225950000226,526.1225950000226,526.3055158000207,526.3221016000025,,528.1067884000076,None,1,,,000015,001,2024-10-09_16h45.57.923,cpt_test,2024.2.2,60.02977477137804,2024-10-09 16h48.05.070032 -0600,
190,Z,0,None,189,189,0,None,1,,,0,189,189,189,528.1208297999983,,,,,,,,,,528.1069641000067,528.1208297999983,528.1208297999983,528.304051700019,528.3204437000095,,530.1052892000007,None,1,,,000015,001,2024-10-09_16h45.57.923,cpt_test,2024.2.2,60.02977477137804,2024-10-09 16h48.05.070032 -0600,
191,I,0,None,190,190,0,None,1,,,0,190,190,190,530.1191645000072,,,,,,,,,,530.1054528000241,530.1191645000072,530.1191645000072,530.3022694000101,530.3186868000193,,532.1031730000104,None,1,,,000015,001,2024-10-09_16h45.57.923,cpt_test,2024.2.2,60.02977477137804,2024-10-09 16h48.05.070032 -0600,
192,J,0,None,191,191,0,None,1,,,0,191,191,191,532.1174471999984,,,,,,,,,,532.103311200015,532.1174471999984,532.1174471999984,532.3004585000162,532.3171798000112,,534.1013523000001,None,1,,,000015,001,2024-10-09_16h45.57.923,cpt_test,2024.2.2,60.02977477137804,2024-10-09 16h48.05.070032 -0600,
193,X,1,x,192,192,0,x,1,0.49465380000765435,0.15028200001688674,0,192,192,192,534.1160236000142,,,,,,,,,,534.1015104000107,534.1160236000142,534.1160236000142,534.3152401999978,534.3152401999978,,536.1171111000003,x,1,0.49465380000765435,0.15028200001688674,000015,001,2024-10-09_16h45.57.923,cpt_test,2024.2.2,60.02977477137804,2024-10-09 16h48.05.070032 -0600,
194,E,0,None,193,193,0,None,1,,,0,193,193,193,536.1310348999978,,,,,,,,,,536.1172912000038,536.1310348999978,536.1310348999978,536.3140881000145,536.3302474000084,,538.1162692000216,None,1,,,000015,001,2024-10-09_16h45.57.923,cpt_test,2024.2.2,60.02977477137804,2024-10-09 16h48.05.070032 -0600,
195,X,1,x,194,194,0,x,1,0.39893719999236055,0.1489648999995552,0,194,194,194,538.1290763000143,,,,,,,,,,538.116483699996,538.1290763000143,538.1290763000143,538.312444500014,538.3286190000072,,540.1131697000237,x,1,0.39893719999236055,0.1489648999995552,000015,001,2024-10-09_16h45.57.923,cpt_test,2024.2.2,60.02977477137804,2024-10-09 16h48.05.070032 -0600,
196,X,1,x,195,195,0,x,1,0.49764580000191927,0.14533379999920726,0,195,195,195,540.1277539000148,,,,,,,,,,540.1133295000182,540.1277539000148,540.1277539000148,540.3109353000182,540.3272243000101,,542.1123529000033,x,1,0.49764580000191927,0.14533379999920726,000015,001,2024-10-09_16h45.57.923,cpt_test,2024.2.2,60.02977477137804,2024-10-09 16h48.05.070032 -0600,
197,O,0,None,196,196,0,None,1,,,0,196,196,196,542.1258112000069,,,,,,,,,,542.1125368000066,542.1258112000069,542.1258112000069,542.3093111000198,542.3254831000231,,544.110650800023,None,1,,,000015,001,2024-10-09_16h45.57.923,cpt_test,2024.2.2,60.02977477137804,2024-10-09 16h48.05.070032 -0600,
198,X,1,x,197,197,0,x,1,0.36922120000235736,0.14526600000681356,0,197,197,197,544.1243569000217,,,,,,,,,,544.1108302000212,544.1243569000217,544.1243569000217,544.3071682000009,544.3238449000055,,546.1081588000234,x,1,0.36922120000235736,0.14526600000681356,000015,001,2024-10-09_16h45.57.923,cpt_test,2024.2.2,60.02977477137804,2024-10-09 16h48.05.070032 -0600,
199,T,0,None,198,198,0,None,1,,,0,198,198,198,546.1226322000148,,,,,,,,,,546.1083059000084,546.1226322000148,546.1226322000148,546.3057573999977,546.3221013000002,,548.1065436000063,None,1,,,000015,001,2024-10-09_16h45.57.923,cpt_test,2024.2.2,60.02977477137804,2024-10-09 16h48.05.070032 -0600,
200,X,1,x,199,199,0,x,1,0.3003100999922026,0.13523600000189617,0,199,199,199,548.1211415000143,,,,,,,,,,548.1066930000088,548.1211415000143,548.1211415000143,548.3043444000068,548.3206783000205,,550.1046388999966,x,1,0.3003100999922026,0.13523600000189617,000015,001,2024-10-09_16h45.57.923,cpt_test,2024.2.2,60.02977477137804,2024-10-09 16h48.05.070032 -0600,
201,L,0,None,200,200,0,None,1,,,0,200,200,200,550.1194926000026,,,,,,,,,,550.1047900000121,550.1194926000026,550.1194926000026,550.3024372000073,550.31896590002,,552.1035029000195,None,1,,,000015,001,2024-10-09_16h45.57.923,cpt_test,2024.2.2,60.02977477137804,2024-10-09 16h48.05.070032 -0600,
