Number,letra,target,correctas,thisN,thisTrialN,thisRepN,respuesta.keys,respuesta.corr,respuesta.rt,respuesta.duration,trials.thisRepN,trials.thisTrialN,trials.thisN,trials.thisIndex,thisRow.t,notes,Ojos_abiertos.started,Abiertos.started,Ojos_abiertos.stopped,Ojos_cerrados.started,Cerrados.started,alert.started,Cerrados.stopped,alert.stopped,Ojos_cerrados.stopped,Test.started,prueba.started,respuesta.started,text.started,prueba.stopped,text.stopped,Test.stopped,trials.respuesta.keys,trials.respuesta.corr,trials.respuesta.rt,trials.respuesta.duration,participant,session,date,expName,psychopyVersion,frameRate,expStart,
,,,,,,,,,,,,,,,,,0.007922399992821738,0.016225600003963336,90.00619479999295,,,,,,,,,,,,,,,,,,000010,001,2024-10-09_12h45.12.720,cpt_test,2024.2.2,60.20487719768844,2024-10-09 12h46.13.163274 -0600,
,,,,,,,,,,,,,,,,,,,,90.00706909998553,90.02130880000186,150.00457706666592,150.0211717999773,150.27063819998875,150.1061662999855,,,,,,,,,,,,000010,001,2024-10-09_12h45.12.720,cpt_test,2024.2.2,60.20487719768844,2024-10-09 12h46.13.163274 -0600,
1,A,0,None,0,0,0,None,1,,,0,0,0,0,150.27063819998875,,,,,,,,,,,150.12386999998125,150.27063819998875,150.27063819998875,150.30213219998404,150.47077339998214,152.10282359999837,152.10541419999208,None,1,,,000010,001,2024-10-09_12h45.12.720,cpt_test,2024.2.2,60.20487719768844,2024-10-09 12h46.13.163274 -0600,
2,R,0,None,1,1,0,None,1,,,0,1,1,1,152.123814999999,,,,,,,,,,,152.10556460000225,152.123814999999,152.123814999999,152.30328089999966,152.3362714999821,,154.1041070999927,None,1,,,000010,001,2024-10-09_12h45.12.720,cpt_test,2024.2.2,60.20487719768844,2024-10-09 12h46.13.163274 -0600,
3,L,0,None,2,2,0,None,1,,,0,2,2,2,154.12325969999074,,,,,,,,,,,154.10428259999026,154.12325969999074,154.12325969999074,154.30160279999836,154.3343638999795,,156.10285159997875,None,1,,,000010,001,2024-10-09_12h45.12.720,cpt_test,2024.2.2,60.20487719768844,2024-10-09 12h46.13.163274 -0600,
4,X,1,x,3,3,0,x,1,0.34376019999035634,0.13628310000058264,0,3,3,3,156.12084809999214,,,,,,,,,,,156.1030426999787,156.12084809999214,156.12084809999214,156.29960080000455,156.33300469999085,,158.10129769999185,x,1,0.34376019999035634,0.13628310000058264,000010,001,2024-10-09_12h45.12.720,cpt_test,2024.2.2,60.20487719768844,2024-10-09 12h46.13.163274 -0600,
5,O,0,None,4,4,0,None,1,,,0,4,4,4,158.1183916000009,,,,,,,,,,,158.1014946999785,158.1183916000009,158.1183916000009,158.31502680000267,158.33101850000094,,160.11574469998595,None,1,,,000010,001,2024-10-09_12h45.12.720,cpt_test,2024.2.2,60.20487719768844,2024-10-09 12h46.13.163274 -0600,
6,G,0,None,5,5,0,None,1,,,0,5,5,5,160.13142869999865,,,,,,,,,,,160.11590129998513,160.13142869999865,160.13142869999865,160.31347140000435,160.34607040000265,,162.11399849998998,None,1,,,000010,001,2024-10-09_12h45.12.720,cpt_test,2024.2.2,60.20487719768844,2024-10-09 12h46.13.163274 -0600,
7,P,0,None,6,6,0,None,1,,,0,6,6,6,162.1307489000028,,,,,,,,,,,162.11415379997925,162.1307489000028,162.1307489000028,162.31133789999876,162.3446447000024,,164.11269139999058,None,1,,,000010,001,2024-10-09_12h45.12.720,cpt_test,2024.2.2,60.20487719768844,2024-10-09 12h46.13.163274 -0600,
8,X,1,x,7,7,0,x,1,0.3205516000161879,0.1370071999845095,0,7,7,7,164.1266881999909,,,,,,,,,,,164.11287409998477,164.1266881999909,164.1266881999909,164.309686099994,164.32618939998792,,166.1107562999823,x,1,0.3205516000161879,0.1370071999845095,000010,001,2024-10-09_12h45.12.720,cpt_test,2024.2.2,60.20487719768844,2024-10-09 12h46.13.163274 -0600,
9,X,1,x,8,8,0,x,1,0.3975858000048902,0.13200750001124106,0,8,8,8,166.12508109997725,,,,,,,,,,,166.1109190999996,166.12508109997725,166.12508109997725,166.30835999999545,166.32465450000018,,168.10937160000321,x,1,0.3975858000048902,0.13200750001124106,000010,001,2024-10-09_12h45.12.720,cpt_test,2024.2.2,60.20487719768844,2024-10-09 12h46.13.163274 -0600,
10,Z,0,None,9,9,0,None,1,,,0,9,9,9,168.12690869998187,,,,,,,,,,,168.10954659999697,168.12690869998187,168.12690869998187,168.30616459998419,168.33938099999796,170.10535939998226,170.1078503000026,None,1,,,000010,001,2024-10-09_12h45.12.720,cpt_test,2024.2.2,60.20487719768844,2024-10-09 12h46.13.163274 -0600,
11,I,0,None,10,10,0,None,1,,,0,10,10,10,170.12298859999282,,,,,,,,,,,170.10800279999967,170.12298859999282,170.12298859999282,170.30476040000212,170.33801899998798,,172.10548229998676,None,1,,,000010,001,2024-10-09_12h45.12.720,cpt_test,2024.2.2,60.20487719768844,2024-10-09 12h46.13.163274 -0600,
12,D,0,None,11,11,0,None,1,,,0,11,11,11,172.1238224999979,,,,,,,,,,,172.10563529998763,172.1238224999979,172.1238224999979,172.30348360000062,172.33642529998906,,174.1044058999978,None,1,,,000010,001,2024-10-09_12h45.12.720,cpt_test,2024.2.2,60.20487719768844,2024-10-09 12h46.13.163274 -0600,
13,X,1,x,12,12,0,x,1,0.4150495000067167,0.11727029999019578,0,12,12,12,174.1185928999912,,,,,,,,,,,174.10457939998014,174.1185928999912,174.1185928999912,174.3016466999834,174.31819319998613,,176.10252949999995,x,1,0.4150495000067167,0.11727029999019578,000010,001,2024-10-09_12h45.12.720,cpt_test,2024.2.2,60.20487719768844,2024-10-09 12h46.13.163274 -0600,
14,Y,0,None,13,13,0,None,1,,,0,13,13,13,176.1209300000046,,,,,,,,,,,176.10270600000513,176.1209300000046,176.1209300000046,176.29987950000213,176.3330399999977,,178.10096919999341,None,1,,,000010,001,2024-10-09_12h45.12.720,cpt_test,2024.2.2,60.20487719768844,2024-10-09 12h46.13.163274 -0600,
15,X,1,x,14,14,0,x,1,0.3464897999947425,0.13057030001073144,0,14,14,14,178.1151173999824,,,,,,,,,,,178.10112209999352,178.1151173999824,178.1151173999824,178.31493939997745,178.31493939997745,,180.11532719997922,x,1,0.3464897999947425,0.13057030001073144,000010,001,2024-10-09_12h45.12.720,cpt_test,2024.2.2,60.20487719768844,2024-10-09 12h46.13.163274 -0600,
16,X,1,x,15,15,0,x,1,0.3759427999902982,0.15353600002708845,0,15,15,15,180.13169320000452,,,,,,,,,,,180.1154777999909,180.13169320000452,180.13169320000452,180.31339249998564,180.34645610000007,,182.11410979999346,x,1,0.3759427999902982,0.15353600002708845,000010,001,2024-10-09_12h45.12.720,cpt_test,2024.2.2,60.20487719768844,2024-10-09 12h46.13.163274 -0600,
17,A,0,None,16,16,0,None,1,,,0,16,16,16,182.12874289997853,,,,,,,,,,,182.11426939998637,182.12874289997853,182.12874289997853,182.31187350000255,182.32818439998664,,184.11259529998642,None,1,,,000010,001,2024-10-09_12h45.12.720,cpt_test,2024.2.2,60.20487719768844,2024-10-09 12h46.13.163274 -0600,
18,J,0,None,17,17,0,None,1,,,0,17,17,17,184.13038419999066,,,,,,,,,,,184.11275479997857,184.13038419999066,184.13038419999066,184.30994519998785,184.34311580000212,,186.1112626999966,None,1,,,000010,001,2024-10-09_12h45.12.720,cpt_test,2024.2.2,60.20487719768844,2024-10-09 12h46.13.163274 -0600,
19,G,0,None,18,18,0,None,1,,,0,18,18,18,186.12482860000455,,,,,,,,,,,186.11145349999424,186.12482860000455,186.12482860000455,186.30825020000339,186.32472049997887,,188.1093217000016,None,1,,,000010,001,2024-10-09_12h45.12.720,cpt_test,2024.2.2,60.20487719768844,2024-10-09 12h46.13.163274 -0600,
20,X,1,x,19,19,0,x,1,0.4807072999828961,0.13512780002201907,0,19,19,19,188.12348829998518,,,,,,,,,,,188.10947450000094,188.12348829998518,188.12348829998518,188.30677729999297,188.3230324999895,,190.1076458999887,x,1,0.4807072999828961,0.13512780002201907,000010,001,2024-10-09_12h45.12.720,cpt_test,2024.2.2,60.20487719768844,2024-10-09 12h46.13.163274 -0600,
21,T,0,None,20,20,0,None,1,,,0,20,20,20,190.12626859999727,,,,,,,,,,,190.10782619999372,190.12626859999727,190.12626859999727,190.3051462000003,190.33812380000018,,192.10669679997955,None,1,,,000010,001,2024-10-09_12h45.12.720,cpt_test,2024.2.2,60.20487719768844,2024-10-09 12h46.13.163274 -0600,
22,S,0,None,21,21,0,None,1,,,0,21,21,21,192.12700919999043,,,,,,,,,,,192.10689569998067,192.12700919999043,192.12700919999043,192.3037027999817,192.33656209998298,,194.10531699997955,None,1,,,000010,001,2024-10-09_12h45.12.720,cpt_test,2024.2.2,60.20487719768844,2024-10-09 12h46.13.163274 -0600,
23,X,1,x,22,22,0,x,1,0.296300699992571,0.19055300002219155,0,22,22,22,194.11879169999156,,,,,,,,,,,194.10552729998017,194.11879169999156,194.11879169999156,194.30171040000278,194.3182555999956,,196.1042744999868,x,1,0.296300699992571,0.19055300002219155,000010,001,2024-10-09_12h45.12.720,cpt_test,2024.2.2,60.20487719768844,2024-10-09 12h46.13.163274 -0600,
24,S,0,None,23,23,0,None,1,,,0,23,23,23,196.1168565999833,,,,,,,,,,,196.10453379998216,196.1168565999833,196.1168565999833,196.30029489999288,196.31669949999196,,198.10128269999404,None,1,,,000010,001,2024-10-09_12h45.12.720,cpt_test,2024.2.2,60.20487719768844,2024-10-09 12h46.13.163274 -0600,
25,G,0,None,24,24,0,None,1,,,0,24,24,24,198.1156229999906,,,,,,,,,,,198.10145649997867,198.1156229999906,198.1156229999906,198.31491769998684,198.31491769998684,,200.11650390000432,None,1,,,000010,001,2024-10-09_12h45.12.720,cpt_test,2024.2.2,60.20487719768844,2024-10-09 12h46.13.163274 -0600,
26,O,0,None,25,25,0,None,1,,,0,25,25,25,200.13044029998127,,,,,,,,,,,200.1166883999831,200.13044029998127,200.13044029998127,200.31390039998223,200.3298494000046,,202.11534729998675,None,1,,,000010,001,2024-10-09_12h45.12.720,cpt_test,2024.2.2,60.20487719768844,2024-10-09 12h46.13.163274 -0600,
27,P,0,None,26,26,0,None,1,,,0,26,26,26,202.12882849999005,,,,,,,,,,,202.11554759999854,202.12882849999005,202.12882849999005,202.3116870999802,202.32817329998943,,204.11329349997686,None,1,,,000010,001,2024-10-09_12h45.12.720,cpt_test,2024.2.2,60.20487719768844,2024-10-09 12h46.13.163274 -0600,
28,Z,0,None,27,27,0,None,1,,,0,27,27,27,204.12691359999008,,,,,,,,,,,204.1134734999796,204.12691359999008,204.12691359999008,204.31040159999975,204.3265472999774,,206.1110235999804,None,1,,,000010,001,2024-10-09_12h45.12.720,cpt_test,2024.2.2,60.20487719768844,2024-10-09 12h46.13.163274 -0600,
29,X,1,x,28,28,0,x,1,0.27382160001434386,0.14546869997866452,0,28,28,28,206.12519849999808,,,,,,,,,,,206.11116879998008,206.12519849999808,206.12519849999808,206.30871799998567,206.32502059999388,,208.110354000004,x,1,0.27382160001434386,0.14546869997866452,000010,001,2024-10-09_12h45.12.720,cpt_test,2024.2.2,60.20487719768844,2024-10-09 12h46.13.163274 -0600,
30,I,0,None,29,29,0,None,1,,,0,29,29,29,208.1237443999853,,,,,,,,,,,208.11056829997688,208.1237443999853,208.1237443999853,208.30676989999483,208.32321529998444,,210.1088409999793,None,1,,,000010,001,2024-10-09_12h45.12.720,cpt_test,2024.2.2,60.20487719768844,2024-10-09 12h46.13.163274 -0600,
31,F,0,None,30,30,0,None,1,,,0,30,30,30,210.1296451999806,,,,,,,,,,,210.10906649997924,210.1296451999806,210.1296451999806,210.30555540000205,210.33848859998398,,212.1074308999814,None,1,,,000010,001,2024-10-09_12h45.12.720,cpt_test,2024.2.2,60.20487719768844,2024-10-09 12h46.13.163274 -0600,
32,M,0,None,31,31,0,None,1,,,0,31,31,31,212.1290730999899,,,,,,,,,,,212.1076373999822,212.1290730999899,212.1290730999899,212.30401459999848,212.33675639997819,,214.10473409999395,None,1,,,000010,001,2024-10-09_12h45.12.720,cpt_test,2024.2.2,60.20487719768844,2024-10-09 12h46.13.163274 -0600,
33,T,0,None,32,32,0,None,1,,,0,32,32,32,214.11909409999498,,,,,,,,,,,214.10489399998914,214.11909409999498,214.11909409999498,214.30212340000435,214.31849409997812,,216.1040017999767,None,1,,,000010,001,2024-10-09_12h45.12.720,cpt_test,2024.2.2,60.20487719768844,2024-10-09 12h46.13.163274 -0600,
34,A,0,None,33,33,0,None,1,,,0,33,33,33,216.11725310000475,,,,,,,,,,,216.10420750000048,216.11725310000475,216.11725310000475,216.30020929998136,216.31675519997953,,218.10143039998366,None,1,,,000010,001,2024-10-09_12h45.12.720,cpt_test,2024.2.2,60.20487719768844,2024-10-09 12h46.13.163274 -0600,
35,E,0,None,34,34,0,None,1,,,0,34,34,34,218.11797629998182,,,,,,,,,,,218.1015919999918,218.11797629998182,218.11797629998182,218.3151945999998,218.33179619998555,,220.10051299998304,None,1,,,000010,001,2024-10-09_12h45.12.720,cpt_test,2024.2.2,60.20487719768844,2024-10-09 12h46.13.163274 -0600,
36,X,1,x,35,35,0,x,1,0.39981540001463145,0.15132949998951517,0,35,35,35,220.11377219998394,,,,,,,,,,,220.10071659999085,220.11377219998394,220.11377219998394,220.31344399999944,220.31344399999944,,222.1146749999898,x,1,0.39981540001463145,0.15132949998951517,000010,001,2024-10-09_12h45.12.720,cpt_test,2024.2.2,60.20487719768844,2024-10-09 12h46.13.163274 -0600,
37,A,0,None,36,36,0,None,1,,,0,36,36,36,222.1289633999986,,,,,,,,,,,222.11483389997738,222.1289633999986,222.1289633999986,222.3122710000025,222.32851679998566,,224.11341540000285,None,1,,,000010,001,2024-10-09_12h45.12.720,cpt_test,2024.2.2,60.20487719768844,2024-10-09 12h46.13.163274 -0600,
38,S,0,None,37,37,0,None,1,,,0,37,37,37,224.12749839999015,,,,,,,,,,,224.11358390000532,224.12749839999015,224.12749839999015,224.3103434999939,224.3270005999948,,226.11130970000522,None,1,,,000010,001,2024-10-09_12h45.12.720,cpt_test,2024.2.2,60.20487719768844,2024-10-09 12h46.13.163274 -0600,
39,U,0,None,38,38,0,None,1,,,0,38,38,38,226.12958009997965,,,,,,,,,,,226.11145450000186,226.12958009997965,226.12958009997965,226.30891239998164,226.34203189998516,,228.1095798999886,None,1,,,000010,001,2024-10-09_12h45.12.720,cpt_test,2024.2.2,60.20487719768844,2024-10-09 12h46.13.163274 -0600,
40,U,0,None,39,39,0,None,1,,,0,39,39,39,228.12389590000384,,,,,,,,,,,228.10973559998092,228.12389590000384,228.12389590000384,228.30715579999378,228.32369829999516,,230.10762249998515,None,1,,,000010,001,2024-10-09_12h45.12.720,cpt_test,2024.2.2,60.20487719768844,2024-10-09 12h46.13.163274 -0600,
41,Q,0,None,40,40,0,None,1,,,0,40,40,40,230.12662729999283,,,,,,,,,,,230.10777819997747,230.12662729999283,230.12662729999283,230.3058566999971,230.33870799999568,,232.10651769998367,None,1,,,000010,001,2024-10-09_12h45.12.720,cpt_test,2024.2.2,60.20487719768844,2024-10-09 12h46.13.163274 -0600,
42,E,0,None,41,41,0,None,1,,,0,41,41,41,232.12059429998044,,,,,,,,,,,232.1066702999815,232.12059429998044,232.12059429998044,232.30378419999033,232.3203538999951,,234.1045566999819,None,1,,,000010,001,2024-10-09_12h45.12.720,cpt_test,2024.2.2,60.20487719768844,2024-10-09 12h46.13.163274 -0600,
43,B,0,None,42,42,0,None,1,,,0,42,42,42,234.12020569999004,,,,,,,,,,,234.10470619998523,234.12020569999004,234.12020569999004,234.30237299998407,234.33540519999224,,236.10349280000082,None,1,,,000010,001,2024-10-09_12h45.12.720,cpt_test,2024.2.2,60.20487719768844,2024-10-09 12h46.13.163274 -0600,
44,O,0,None,43,43,0,None,1,,,0,43,43,43,236.11756509999395,,,,,,,,,,,236.10368279999238,236.11756509999395,236.11756509999395,236.30071489998954,236.3169249999919,,238.10142550000455,None,1,,,000010,001,2024-10-09_12h45.12.720,cpt_test,2024.2.2,60.20487719768844,2024-10-09 12h46.13.163274 -0600,
45,E,0,None,44,44,0,None,1,,,0,44,44,44,238.11587179999333,,,,,,,,,,,238.1015681999852,238.11587179999333,238.11587179999333,238.31534939998528,238.31534939998528,,240.11654239997733,None,1,,,000010,001,2024-10-09_12h45.12.720,cpt_test,2024.2.2,60.20487719768844,2024-10-09 12h46.13.163274 -0600,
46,F,0,None,45,45,0,None,1,,,0,45,45,45,240.13075650000246,,,,,,,,,,,240.1166949000035,240.13075650000246,240.13075650000246,240.3141312999942,240.33011569999508,,242.11499410000397,None,1,,,000010,001,2024-10-09_12h45.12.720,cpt_test,2024.2.2,60.20487719768844,2024-10-09 12h46.13.163274 -0600,
47,V,0,None,46,46,0,None,1,,,0,46,46,46,242.13412979998975,,,,,,,,,,,242.11516549999942,242.13412979998975,242.13412979998975,242.31228209999972,242.345296399988,,244.11301229998935,None,1,,,000010,001,2024-10-09_12h45.12.720,cpt_test,2024.2.2,60.20487719768844,2024-10-09 12h46.13.163274 -0600,
48,X,1,x,47,47,0,x,1,0.29014629998710006,0.15428770001744851,0,47,47,47,244.1274635999871,,,,,,,,,,,244.113170800003,244.1274635999871,244.1274635999871,244.310530799994,244.32714789998136,,246.1115415999957,x,1,0.29014629998710006,0.15428770001744851,000010,001,2024-10-09_12h45.12.720,cpt_test,2024.2.2,60.20487719768844,2024-10-09 12h46.13.163274 -0600,
49,X,1,x,48,48,0,x,1,0.4143585999845527,0.1511441000038758,0,48,48,48,246.12601330000325,,,,,,,,,,,246.11169299998437,246.12601330000325,246.12601330000325,246.30890039997757,246.32502639997983,,248.11025019999943,x,1,0.4143585999845527,0.1511441000038758,000010,001,2024-10-09_12h45.12.720,cpt_test,2024.2.2,60.20487719768844,2024-10-09 12h46.13.163274 -0600,
50,C,0,None,49,49,0,None,1,,,0,49,49,49,248.128444699978,,,,,,,,,,,248.1104103999969,248.128444699978,248.128444699978,248.30698069999926,248.3405458999914,,250.10856989998138,None,1,,,000010,001,2024-10-09_12h45.12.720,cpt_test,2024.2.2,60.20487719768844,2024-10-09 12h46.13.163274 -0600,
51,M,0,None,50,50,0,None,1,,,0,50,50,50,250.12239289999707,,,,,,,,,,,250.10873789998004,250.12239289999707,250.12239289999707,250.3058506999805,250.3220205999969,,252.10744579997845,None,1,,,000010,001,2024-10-09_12h45.12.720,cpt_test,2024.2.2,60.20487719768844,2024-10-09 12h46.13.163274 -0600,
52,D,0,None,51,51,0,None,1,,,0,51,51,51,252.12069799998426,,,,,,,,,,,252.10764349999954,252.12069799998426,252.12069799998426,252.30405029997928,252.3202656999929,,254.10480889998144,None,1,,,000010,001,2024-10-09_12h45.12.720,cpt_test,2024.2.2,60.20487719768844,2024-10-09 12h46.13.163274 -0600,
53,X,1,x,52,52,0,x,1,0.3955951000098139,0.18774069999926724,0,52,52,52,254.11915009998484,,,,,,,,,,,254.10495509998873,254.11915009998484,254.11915009998484,254.302641199989,254.3186960000021,,256.10327409999445,x,1,0.3955951000098139,0.18774069999926724,000010,001,2024-10-09_12h45.12.720,cpt_test,2024.2.2,60.20487719768844,2024-10-09 12h46.13.163274 -0600,
54,K,0,None,53,53,0,None,1,,,0,53,53,53,256.12311039998895,,,,,,,,,,,256.1034201000002,256.12311039998895,256.12311039998895,256.300832399982,256.3338479999802,,258.1018809999805,None,1,,,000010,001,2024-10-09_12h45.12.720,cpt_test,2024.2.2,60.20487719768844,2024-10-09 12h46.13.163274 -0600,
55,X,1,x,54,54,0,x,1,0.4176044999912847,0.12321429999428801,0,54,54,54,258.1157278000028,,,,,,,,,,,258.10207199997967,258.1157278000028,258.1157278000028,258.31538620000356,258.31538620000356,,260.1167582999915,x,1,0.4176044999912847,0.12321429999428801,000010,001,2024-10-09_12h45.12.720,cpt_test,2024.2.2,60.20487719768844,2024-10-09 12h46.13.163274 -0600,
56,N,0,None,55,55,0,None,1,,,0,55,55,55,260.13498800000525,,,,,,,,,,,260.11692299999413,260.13498800000525,260.13498800000525,260.3141834999842,260.34710859999177,,262.11526859999867,None,1,,,000010,001,2024-10-09_12h45.12.720,cpt_test,2024.2.2,60.20487719768844,2024-10-09 12h46.13.163274 -0600,
57,M,0,None,56,56,0,None,1,,,0,56,56,56,262.12919409997994,,,,,,,,,,,262.11543659999734,262.12919409997994,262.12919409997994,262.31246799998917,262.3288273999933,,264.1140469999809,None,1,,,000010,001,2024-10-09_12h45.12.720,cpt_test,2024.2.2,60.20487719768844,2024-10-09 12h46.13.163274 -0600,
58,X,1,x,57,57,0,x,1,0.34840789998997934,0.13995949999662116,0,57,57,57,264.12758559998474,,,,,,,,,,,264.11424309998984,264.12758559998474,264.12758559998474,264.31085409998195,264.3272527999943,,266.11140689998865,x,1,0.34840789998997934,0.13995949999662116,000010,001,2024-10-09_12h45.12.720,cpt_test,2024.2.2,60.20487719768844,2024-10-09 12h46.13.163274 -0600,
59,F,0,None,58,58,0,None,1,,,0,58,58,58,266.1262940999877,,,,,,,,,,,266.11155699999654,266.1262940999877,266.1262940999877,266.30942079998204,266.32548199998564,,268.10975989999133,None,1,,,000010,001,2024-10-09_12h45.12.720,cpt_test,2024.2.2,60.20487719768844,2024-10-09 12h46.13.163274 -0600,
60,A,0,None,59,59,0,None,1,,,0,59,59,59,268.1241055999999,,,,,,,,,,,268.1099025000003,268.1241055999999,268.1241055999999,268.3074914999888,268.3239076999889,,270.10775649998686,None,1,,,000010,001,2024-10-09_12h45.12.720,cpt_test,2024.2.2,60.20487719768844,2024-10-09 12h46.13.163274 -0600,
61,X,1,x,60,60,0,x,1,0.4171541999967303,0.13064899999881163,0,60,60,60,270.1222793000052,,,,,,,,,,,270.1078997000004,270.1222793000052,270.1222793000052,270.3059035000042,270.32239279997884,,272.10736409999663,x,1,0.4171541999967303,0.13064899999881163,000010,001,2024-10-09_12h45.12.720,cpt_test,2024.2.2,60.20487719768844,2024-10-09 12h46.13.163274 -0600,
62,V,0,None,61,61,0,None,1,,,0,61,61,61,272.1209627999924,,,,,,,,,,,272.10756740000215,272.1209627999924,272.1209627999924,272.3040771999804,272.3207232999848,,274.10521919999155,None,1,,,000010,001,2024-10-09_12h45.12.720,cpt_test,2024.2.2,60.20487719768844,2024-10-09 12h46.13.163274 -0600,
63,U,0,None,62,62,0,None,1,,,0,62,62,62,274.1195380999998,,,,,,,,,,,274.10538349999115,274.1195380999998,274.1195380999998,274.3027276999783,274.31899030000204,,276.1033240999968,None,1,,,000010,001,2024-10-09_12h45.12.720,cpt_test,2024.2.2,60.20487719768844,2024-10-09 12h46.13.163274 -0600,
64,M,0,None,63,63,0,None,1,,,0,63,63,63,276.1178213999956,,,,,,,,,,,276.1034817000036,276.1178213999956,276.1178213999956,276.3011718999769,276.31732609999017,,278.1018141999957,None,1,,,000010,001,2024-10-09_12h45.12.720,cpt_test,2024.2.2,60.20487719768844,2024-10-09 12h46.13.163274 -0600,
65,X,1,x,64,64,0,x,1,0.33334509999258444,0.14390570000978187,0,64,64,64,278.11645309999585,,,,,,,,,,,278.101963299996,278.11645309999585,278.11645309999585,278.3157691999804,278.3157691999804,,280.1165095999895,x,1,0.33334509999258444,0.14390570000978187,000010,001,2024-10-09_12h45.12.720,cpt_test,2024.2.2,60.20487719768844,2024-10-09 12h46.13.163274 -0600,
66,A,0,None,65,65,0,None,1,,,0,65,65,65,280.13114260000293,,,,,,,,,,,280.11665779998293,280.13114260000293,280.13114260000293,280.31456709999475,280.3305399999954,,282.1150193999929,None,1,,,000010,001,2024-10-09_12h45.12.720,cpt_test,2024.2.2,60.20487719768844,2024-10-09 12h46.13.163274 -0600,
67,N,0,None,66,66,0,None,1,,,0,66,66,66,282.1293628999847,,,,,,,,,,,282.11516519999714,282.1293628999847,282.1293628999847,282.31260569998994,282.32925859998795,,284.1142726999824,None,1,,,000010,001,2024-10-09_12h45.12.720,cpt_test,2024.2.2,60.20487719768844,2024-10-09 12h46.13.163274 -0600,
68,H,0,None,67,67,0,None,1,,,0,67,67,67,284.1354708999861,,,,,,,,,,,284.1144607999886,284.1354708999861,284.1354708999861,284.31088049997925,284.34427559998585,,286.1119862999767,None,1,,,000010,001,2024-10-09_12h45.12.720,cpt_test,2024.2.2,60.20487719768844,2024-10-09 12h46.13.163274 -0600,
69,A,0,None,68,68,0,None,1,,,0,68,68,68,286.12577349998173,,,,,,,,,,,286.1121543000045,286.12577349998173,286.12577349998173,286.3092498999904,286.3255617999821,,288.10997019999195,None,1,,,000010,001,2024-10-09_12h45.12.720,cpt_test,2024.2.2,60.20487719768844,2024-10-09 12h46.13.163274 -0600,
70,X,1,x,69,69,0,x,1,0.4133618999912869,0.15473259999998845,0,69,69,69,288.12420429999474,,,,,,,,,,,288.11011330000474,288.12420429999474,288.12420429999474,288.3075431000034,288.32406620000256,,290.10839349997696,x,1,0.4133618999912869,0.15473259999998845,000010,001,2024-10-09_12h45.12.720,cpt_test,2024.2.2,60.20487719768844,2024-10-09 12h46.13.163274 -0600,
71,F,0,None,70,70,0,None,1,,,0,70,70,70,290.12281289999373,,,,,,,,,,,290.1085578999773,290.12281289999373,290.12281289999373,290.30615019999095,290.32222589998855,,292.1069693999889,None,1,,,000010,001,2024-10-09_12h45.12.720,cpt_test,2024.2.2,60.20487719768844,2024-10-09 12h46.13.163274 -0600,
72,N,0,None,71,71,0,None,1,,,0,71,71,71,292.1210646999825,,,,,,,,,,,292.10712469997816,292.1210646999825,292.1210646999825,292.3042843999865,292.3207005999866,,294.1056671999977,None,1,,,000010,001,2024-10-09_12h45.12.720,cpt_test,2024.2.2,60.20487719768844,2024-10-09 12h46.13.163274 -0600,
73,K,0,None,72,72,0,None,1,,,0,72,72,72,294.1197431999899,,,,,,,,,,,294.1058066999831,294.1197431999899,294.1197431999899,294.30349339998793,294.3191306999943,,296.10377549999976,None,1,,,000010,001,2024-10-09_12h45.12.720,cpt_test,2024.2.2,60.20487719768844,2024-10-09 12h46.13.163274 -0600,
74,Y,0,None,73,73,0,None,1,,,0,73,73,73,296.1182520999864,,,,,,,,,,,296.1039414999832,296.1182520999864,296.1182520999864,296.3007382999931,296.31724049997865,,298.10146199999144,None,1,,,000010,001,2024-10-09_12h45.12.720,cpt_test,2024.2.2,60.20487719768844,2024-10-09 12h46.13.163274 -0600,
75,Y,0,None,74,74,0,None,1,,,0,74,74,74,298.11632319999626,,,,,,,,,,,298.10160269998596,298.11632319999626,298.11632319999626,298.2995137999824,298.31578159998753,,300.10088220000034,None,1,,,000010,001,2024-10-09_12h45.12.720,cpt_test,2024.2.2,60.20487719768844,2024-10-09 12h46.13.163274 -0600,
76,R,0,None,75,75,0,None,1,,,0,75,75,75,300.114711799979,,,,,,,,,,,300.10106980000273,300.114711799979,300.114711799979,300.3141645999858,300.3141645999858,,302.1156539999938,None,1,,,000010,001,2024-10-09_12h45.12.720,cpt_test,2024.2.2,60.20487719768844,2024-10-09 12h46.13.163274 -0600,
77,X,1,x,76,76,0,x,1,0.3991569000063464,0.14541540000936948,0,76,76,76,302.129652100004,,,,,,,,,,,302.1158029999933,302.129652100004,302.129652100004,302.3129004999937,302.3292785999947,,304.1150369999814,x,1,0.3991569000063464,0.14541540000936948,000010,001,2024-10-09_12h45.12.720,cpt_test,2024.2.2,60.20487719768844,2024-10-09 12h46.13.163274 -0600,
78,R,0,None,77,77,0,None,1,,,0,77,77,77,304.1279264999903,,,,,,,,,,,304.1152619999775,304.1279264999903,304.1279264999903,304.3113317999814,304.3274088999897,,306.11197739999625,None,1,,,000010,001,2024-10-09_12h45.12.720,cpt_test,2024.2.2,60.20487719768844,2024-10-09 12h46.13.163274 -0600,
79,F,0,None,78,78,0,None,1,,,0,78,78,78,306.1267657999997,,,,,,,,,,,306.1121237000043,306.1267657999997,306.1267657999997,306.3096405999968,306.3260915999999,,308.1113914999878,None,1,,,000010,001,2024-10-09_12h45.12.720,cpt_test,2024.2.2,60.20487719768844,2024-10-09 12h46.13.163274 -0600,
80,K,0,None,79,79,0,None,1,,,0,79,79,79,308.1243857999798,,,,,,,,,,,308.11159139999654,308.1243857999798,308.1243857999798,308.3076125999796,308.32371669998975,,310.1087819999957,None,1,,,000010,001,2024-10-09_12h45.12.720,cpt_test,2024.2.2,60.20487719768844,2024-10-09 12h46.13.163274 -0600,
81,O,0,None,80,80,0,None,1,,,0,80,80,80,310.12320410000393,,,,,,,,,,,310.108948899986,310.12320410000393,310.12320410000393,310.3064139999915,310.32267689998844,,312.10706419998314,None,1,,,000010,001,2024-10-09_12h45.12.720,cpt_test,2024.2.2,60.20487719768844,2024-10-09 12h46.13.163274 -0600,
82,F,0,None,81,81,0,None,1,,,0,81,81,81,312.1215247999935,,,,,,,,,,,312.10721889999695,312.1215247999935,312.1215247999935,312.30451709998306,312.3209468999994,,314.10567069999524,None,1,,,000010,001,2024-10-09_12h45.12.720,cpt_test,2024.2.2,60.20487719768844,2024-10-09 12h46.13.163274 -0600,
83,F,0,None,82,82,0,None,1,,,0,82,82,82,314.12014409998665,,,,,,,,,,,314.1058206000016,314.12014409998665,314.12014409998665,314.3031701,314.3194528000022,,316.1048847999773,None,1,,,000010,001,2024-10-09_12h45.12.720,cpt_test,2024.2.2,60.20487719768844,2024-10-09 12h46.13.163274 -0600,
84,W,0,None,83,83,0,None,1,,,0,83,83,83,316.12836410000455,,,,,,,,,,,316.1050963999878,316.12836410000455,316.12836410000455,316.3016828999971,316.3342564999766,,318.10434809999424,None,1,,,000010,001,2024-10-09_12h45.12.720,cpt_test,2024.2.2,60.20487719768844,2024-10-09 12h46.13.163274 -0600,
85,X,1,x,84,84,0,x,1,0.2978980999905616,0.13876249999157153,0,84,84,84,318.1163913999917,,,,,,,,,,,318.1045685999852,318.1163913999917,318.1163913999917,318.2994947999832,318.3159995999886,,320.1007896999945,x,1,0.2978980999905616,0.13876249999157153,000010,001,2024-10-09_12h45.12.720,cpt_test,2024.2.2,60.20487719768844,2024-10-09 12h46.13.163274 -0600,
86,J,0,None,85,85,0,None,1,,,0,85,85,85,320.11471520000487,,,,,,,,,,,320.1009604999854,320.11471520000487,320.11471520000487,320.3146867000032,320.3146867000032,,322.11612689998583,None,1,,,000010,001,2024-10-09_12h45.12.720,cpt_test,2024.2.2,60.20487719768844,2024-10-09 12h46.13.163274 -0600,
87,N,0,None,86,86,0,None,1,,,0,86,86,86,322.130016399984,,,,,,,,,,,322.1163078999962,322.130016399984,322.130016399984,322.31322219999856,322.32930049998686,,324.1141764999775,None,1,,,000010,001,2024-10-09_12h45.12.720,cpt_test,2024.2.2,60.20487719768844,2024-10-09 12h46.13.163274 -0600,
88,X,1,x,87,87,0,x,1,0.3214047999936156,0.13242610002635047,0,87,87,87,324.12846959999297,,,,,,,,,,,324.1143324000004,324.12846959999297,324.12846959999297,324.3114939999941,324.32791219998035,,326.1134053999849,x,1,0.3214047999936156,0.13242610002635047,000010,001,2024-10-09_12h45.12.720,cpt_test,2024.2.2,60.20487719768844,2024-10-09 12h46.13.163274 -0600,
89,T,0,None,88,88,0,None,1,,,0,88,88,88,326.12641559998156,,,,,,,,,,,326.113626699982,326.12641559998156,326.12641559998156,326.309872599988,326.3262367999996,,328.11156140000094,None,1,,,000010,001,2024-10-09_12h45.12.720,cpt_test,2024.2.2,60.20487719768844,2024-10-09 12h46.13.163274 -0600,
90,I,0,None,89,89,0,None,1,,,0,89,89,89,328.1248387999949,,,,,,,,,,,328.11176030000206,328.1248387999949,328.1248387999949,328.3077851999842,328.3243931999896,,330.10970089997863,None,1,,,000010,001,2024-10-09_12h45.12.720,cpt_test,2024.2.2,60.20487719768844,2024-10-09 12h46.13.163274 -0600,
91,P,0,None,90,90,0,None,1,,,0,90,90,90,330.1233796000015,,,,,,,,,,,330.1098923999816,330.1233796000015,330.1233796000015,330.30649769998854,330.32299539999804,,332.10819040000206,None,1,,,000010,001,2024-10-09_12h45.12.720,cpt_test,2024.2.2,60.20487719768844,2024-10-09 12h46.13.163274 -0600,
92,X,1,x,91,91,0,x,1,0.30940100000589155,0.1316274999990128,0,91,91,91,332.12179710000055,,,,,,,,,,,332.1083923999977,332.12179710000055,332.12179710000055,332.30505629998515,332.32132190000266,,334.10619589997805,x,1,0.30940100000589155,0.1316274999990128,000010,001,2024-10-09_12h45.12.720,cpt_test,2024.2.2,60.20487719768844,2024-10-09 12h46.13.163274 -0600,
93,B,0,None,92,92,0,None,1,,,0,92,92,92,334.12024210000527,,,,,,,,,,,334.1064015000011,334.12024210000527,334.12024210000527,334.3032396000053,334.31941639998695,,336.10472839997965,None,1,,,000010,001,2024-10-09_12h45.12.720,cpt_test,2024.2.2,60.20487719768844,2024-10-09 12h46.13.163274 -0600,
94,M,0,None,93,93,0,None,1,,,0,93,93,93,336.1187740000023,,,,,,,,,,,336.10492919999524,336.1187740000023,336.1187740000023,336.30138809999335,336.31791419998626,,338.1034131000051,None,1,,,000010,001,2024-10-09_12h45.12.720,cpt_test,2024.2.2,60.20487719768844,2024-10-09 12h46.13.163274 -0600,
95,B,0,None,94,94,0,None,1,,,0,94,94,94,338.1165328999923,,,,,,,,,,,338.10361560000456,338.1165328999923,338.1165328999923,338.30011199999717,338.3161465000012,,340.10089819997665,None,1,,,000010,001,2024-10-09_12h45.12.720,cpt_test,2024.2.2,60.20487719768844,2024-10-09 12h46.13.163274 -0600,
96,I,0,None,95,95,0,None,1,,,0,95,95,95,340.11476830000174,,,,,,,,,,,340.1010648999945,340.11476830000174,340.11476830000174,340.31454459999804,340.31454459999804,,342.11623220000183,None,1,,,000010,001,2024-10-09_12h45.12.720,cpt_test,2024.2.2,60.20487719768844,2024-10-09 12h46.13.163274 -0600,
97,X,1,x,96,96,0,x,1,0.5446389999997336,0.1590241999947466,0,96,96,96,342.12996869999915,,,,,,,,,,,342.11642209999263,342.12996869999915,342.12996869999915,342.3132940999931,342.32944619999034,,344.11392380000325,x,1,0.5446389999997336,0.1590241999947466,000010,001,2024-10-09_12h45.12.720,cpt_test,2024.2.2,60.20487719768844,2024-10-09 12h46.13.163274 -0600,
98,J,0,None,97,97,0,None,1,,,0,97,97,97,344.1284595000034,,,,,,,,,,,344.11408189998474,344.1284595000034,344.1284595000034,344.3116026999778,344.3279179999954,,346.1126780999766,None,1,,,000010,001,2024-10-09_12h45.12.720,cpt_test,2024.2.2,60.20487719768844,2024-10-09 12h46.13.163274 -0600,
99,X,1,x,98,98,0,x,1,0.42869680002331734,0.1400714999763295,0,98,98,98,346.1266024999786,,,,,,,,,,,346.1128242999839,346.1266024999786,346.1266024999786,346.3099804999947,346.3262774999894,,348.11078619997716,x,1,0.42869680002331734,0.1400714999763295,000010,001,2024-10-09_12h45.12.720,cpt_test,2024.2.2,60.20487719768844,2024-10-09 12h46.13.163274 -0600,
100,U,0,None,99,99,0,None,1,,,0,99,99,99,348.12526269999216,,,,,,,,,,,348.1109552999842,348.12526269999216,348.12526269999216,348.3083504999813,348.3247090999794,,350.1090039999981,None,1,,,000010,001,2024-10-09_12h45.12.720,cpt_test,2024.2.2,60.20487719768844,2024-10-09 12h46.13.163274 -0600,
101,D,0,None,100,100,0,None,1,,,0,100,100,100,350.12361959999544,,,,,,,,,,,350.1091506999801,350.12361959999544,350.12361959999544,350.30682109997724,350.32312339998316,,352.1074050999887,None,1,,,000010,001,2024-10-09_12h45.12.720,cpt_test,2024.2.2,60.20487719768844,2024-10-09 12h46.13.163274 -0600,
102,X,1,x,101,101,0,x,1,0.30010459999903105,0.14979560000938363,0,101,101,101,352.1220611000026,,,,,,,,,,,352.10755529999733,352.1220611000026,352.1220611000026,352.3052150000003,352.32157939998433,,354.10572140000295,x,1,0.30010459999903105,0.14979560000938363,000010,001,2024-10-09_12h45.12.720,cpt_test,2024.2.2,60.20487719768844,2024-10-09 12h46.13.163274 -0600,
103,X,1,x,102,102,0,x,1,0.5126185999833979,0.14581440002075396,0,102,102,102,354.120471799979,,,,,,,,,,,354.10587169998325,354.120471799979,354.120471799979,354.30314099998213,354.3197709999804,,356.10452090000035,x,1,0.5126185999833979,0.14581440002075396,000010,001,2024-10-09_12h45.12.720,cpt_test,2024.2.2,60.20487719768844,2024-10-09 12h46.13.163274 -0600,
104,N,0,None,103,103,0,None,1,,,0,103,103,103,356.11859969998477,,,,,,,,,,,356.1046929000004,356.11859969998477,356.11859969998477,356.30198580000433,356.31805479998,,358.10267259998363,None,1,,,000010,001,2024-10-09_12h45.12.720,cpt_test,2024.2.2,60.20487719768844,2024-10-09 12h46.13.163274 -0600,
105,U,0,None,104,104,0,None,1,,,0,104,104,104,358.1171982999949,,,,,,,,,,,358.1028149999911,358.1171982999949,358.1171982999949,358.30017279999447,358.3168256999925,,360.10126589998254,None,1,,,000010,001,2024-10-09_12h45.12.720,cpt_test,2024.2.2,60.20487719768844,2024-10-09 12h46.13.163274 -0600,
106,T,0,None,105,105,0,None,1,,,0,105,105,105,360.11505799999577,,,,,,,,,,,360.1014331000042,360.11505799999577,360.11505799999577,360.31487649999326,360.31487649999326,,362.11581950000254,None,1,,,000010,001,2024-10-09_12h45.12.720,cpt_test,2024.2.2,60.20487719768844,2024-10-09 12h46.13.163274 -0600,
107,W,0,None,106,106,0,None,1,,,0,106,106,106,362.1304350999999,,,,,,,,,,,362.11597339998116,362.1304350999999,362.1304350999999,362.313362099987,362.3299161999894,,364.1147479999927,None,1,,,000010,001,2024-10-09_12h45.12.720,cpt_test,2024.2.2,60.20487719768844,2024-10-09 12h46.13.163274 -0600,
108,N,0,None,107,107,0,None,1,,,0,107,107,107,364.1285647999903,,,,,,,,,,,364.1149282999977,364.1285647999903,364.1285647999903,364.31196739998995,364.32798819997697,,366.11346920000506,None,1,,,000010,001,2024-10-09_12h45.12.720,cpt_test,2024.2.2,60.20487719768844,2024-10-09 12h46.13.163274 -0600,
109,R,0,None,108,108,0,None,1,,,0,108,108,108,366.1271396999946,,,,,,,,,,,366.113655299996,366.1271396999946,366.1271396999946,366.3100050999783,366.3265586000052,,368.1115296999924,None,1,,,000010,001,2024-10-09_12h45.12.720,cpt_test,2024.2.2,60.20487719768844,2024-10-09 12h46.13.163274 -0600,
110,X,1,x,109,109,0,x,1,0.31375599998864345,0.1536164999997709,0,109,109,109,368.1253052999964,,,,,,,,,,,368.1117057999945,368.1253052999964,368.1253052999964,368.3086526999832,368.3248453999986,,370.1094482000044,x,1,0.31375599998864345,0.1536164999997709,000010,001,2024-10-09_12h45.12.720,cpt_test,2024.2.2,60.20487719768844,2024-10-09 12h46.13.163274 -0600,
111,A,0,None,110,110,0,None,1,,,0,110,110,110,370.12371009998606,,,,,,,,,,,370.1096122000017,370.12371009998606,370.12371009998606,370.306706399977,370.32332239998505,,372.1080011999875,None,1,,,000010,001,2024-10-09_12h45.12.720,cpt_test,2024.2.2,60.20487719768844,2024-10-09 12h46.13.163274 -0600,
112,X,1,x,111,111,0,x,1,0.2698221000027843,0.14132970001082867,0,111,111,111,372.12186949999887,,,,,,,,,,,372.108163900004,372.12186949999887,372.12186949999887,372.3053267999785,372.32170979998773,,374.1058694999956,x,1,0.2698221000027843,0.14132970001082867,000010,001,2024-10-09_12h45.12.720,cpt_test,2024.2.2,60.20487719768844,2024-10-09 12h46.13.163274 -0600,
113,G,0,None,112,112,0,None,1,,,0,112,112,112,374.12046000000555,,,,,,,,,,,374.1060213999881,374.12046000000555,374.12046000000555,374.3037203999993,374.32018819998484,,376.1043364999932,None,1,,,000010,001,2024-10-09_12h45.12.720,cpt_test,2024.2.2,60.20487719768844,2024-10-09 12h46.13.163274 -0600,
114,O,0,None,113,113,0,None,1,,,0,113,113,113,376.1189620999794,,,,,,,,,,,376.1044910000055,376.1189620999794,376.1189620999794,376.30195239998284,376.3183800999832,,378.1029658000043,None,1,,,000010,001,2024-10-09_12h45.12.720,cpt_test,2024.2.2,60.20487719768844,2024-10-09 12h46.13.163274 -0600,
115,U,0,None,114,114,0,None,1,,,0,114,114,114,378.11737930000527,,,,,,,,,,,378.1031062999973,378.11737930000527,378.11737930000527,378.30035949999,378.3163824999938,,380.1011903999897,None,1,,,000010,001,2024-10-09_12h45.12.720,cpt_test,2024.2.2,60.20487719768844,2024-10-09 12h46.13.163274 -0600,
116,X,1,x,115,115,0,x,1,0.3618631999997888,0.15495100000407547,0,115,115,115,380.1153968999861,,,,,,,,,,,380.10134369999287,380.1153968999861,380.1153968999861,380.31501049999497,380.31501049999497,,382.11588669999037,x,1,0.3618631999997888,0.15495100000407547,000010,001,2024-10-09_12h45.12.720,cpt_test,2024.2.2,60.20487719768844,2024-10-09 12h46.13.163274 -0600,
117,X,1,x,116,116,0,x,1,0.47286549999262206,0.17780119998496957,0,116,116,116,382.13067369998316,,,,,,,,,,,382.1160356999899,382.13067369998316,382.13067369998316,382.3134945999773,382.3300676999788,,384.11401849999675,x,1,0.47286549999262206,0.17780119998496957,000010,001,2024-10-09_12h45.12.720,cpt_test,2024.2.2,60.20487719768844,2024-10-09 12h46.13.163274 -0600,
118,C,0,None,117,117,0,None,1,,,0,117,117,117,384.1290849999932,,,,,,,,,,,384.1141632999934,384.1290849999932,384.1290849999932,384.31213330000173,384.32835229998454,,386.11270649998914,None,1,,,000010,001,2024-10-09_12h45.12.720,cpt_test,2024.2.2,60.20487719768844,2024-10-09 12h46.13.163274 -0600,
119,A,0,None,118,118,0,None,1,,,0,118,118,118,386.1272125999967,,,,,,,,,,,386.1128431999823,386.1272125999967,386.1272125999967,386.31046029998106,386.3267330999952,,388.1126097999804,None,1,,,000010,001,2024-10-09_12h45.12.720,cpt_test,2024.2.2,60.20487719768844,2024-10-09 12h46.13.163274 -0600,
120,X,1,x,119,119,0,x,1,0.6278345000173431,0.13521169999148697,0,119,119,119,388.12538349998067,,,,,,,,,,,388.11283999998705,388.12538349998067,388.12538349998067,388.3089243999857,388.3250349999871,,390.1102041999984,x,1,0.6278345000173431,0.13521169999148697,000010,001,2024-10-09_12h45.12.720,cpt_test,2024.2.2,60.20487719768844,2024-10-09 12h46.13.163274 -0600,
121,H,0,None,120,120,0,None,1,,,0,120,120,120,390.12386639998294,,,,,,,,,,,390.1103990999982,390.12386639998294,390.12386639998294,390.3070323999855,390.32486470000003,,392.1078939999861,None,1,,,000010,001,2024-10-09_12h45.12.720,cpt_test,2024.2.2,60.20487719768844,2024-10-09 12h46.13.163274 -0600,
122,M,0,None,121,121,0,None,1,,,0,121,121,121,392.1225337999931,,,,,,,,,,,392.1080424999818,392.1225337999931,392.1225337999931,392.3053096999938,392.3216974999814,,394.1060948999948,None,1,,,000010,001,2024-10-09_12h45.12.720,cpt_test,2024.2.2,60.20487719768844,2024-10-09 12h46.13.163274 -0600,
123,V,0,None,122,122,0,None,1,,,0,122,122,122,394.1203755000024,,,,,,,,,,,394.1062396999914,394.1203755000024,394.1203755000024,394.30380739999237,394.3203369999828,,396.1050534999813,None,1,,,000010,001,2024-10-09_12h45.12.720,cpt_test,2024.2.2,60.20487719768844,2024-10-09 12h46.13.163274 -0600,
124,K,0,None,123,123,0,None,1,,,0,123,123,123,396.11909130000276,,,,,,,,,,,396.1051999999909,396.11909130000276,396.11909130000276,396.30204189999495,396.3182609999785,,398.10332709999057,None,1,,,000010,001,2024-10-09_12h45.12.720,cpt_test,2024.2.2,60.20487719768844,2024-10-09 12h46.13.163274 -0600,
125,G,0,None,124,124,0,None,1,,,0,124,124,124,398.1174306999892,,,,,,,,,,,398.10349139999016,398.1174306999892,398.1174306999892,398.3005695999891,398.31662339999457,,400.10206899998593,None,1,,,000010,001,2024-10-09_12h45.12.720,cpt_test,2024.2.2,60.20487719768844,2024-10-09 12h46.13.163274 -0600,
126,A,0,None,125,125,0,None,1,,,0,125,125,125,400.11571569999796,,,,,,,,,,,400.10225759999594,400.11571569999796,400.11571569999796,400.31524619998527,400.31524619998527,,402.1169430000009,None,1,,,000010,001,2024-10-09_12h45.12.720,cpt_test,2024.2.2,60.20487719768844,2024-10-09 12h46.13.163274 -0600,
127,X,1,x,126,126,0,x,1,0.3486200000043027,0.1596053999965079,0,126,126,126,402.13073609999265,,,,,,,,,,,402.1171269000042,402.13073609999265,402.13073609999265,402.31398239999544,402.3301969000022,,404.1146221999952,x,1,0.3486200000043027,0.1596053999965079,000010,001,2024-10-09_12h45.12.720,cpt_test,2024.2.2,60.20487719768844,2024-10-09 12h46.13.163274 -0600,
128,N,0,None,127,127,0,None,1,,,0,127,127,127,404.1292741999787,,,,,,,,,,,404.1147696999833,404.1292741999787,404.1292741999787,404.3124500999984,404.32824849997996,,406.1129523999989,None,1,,,000010,001,2024-10-09_12h45.12.720,cpt_test,2024.2.2,60.20487719768844,2024-10-09 12h46.13.163274 -0600,
129,Y,0,None,128,128,0,None,1,,,0,128,128,128,406.12759619997814,,,,,,,,,,,406.1130974999978,406.12759619997814,406.12759619997814,406.31071649998194,406.326757599978,,408.1122880000039,None,1,,,000010,001,2024-10-09_12h45.12.720,cpt_test,2024.2.2,60.20487719768844,2024-10-09 12h46.13.163274 -0600,
130,W,0,None,129,129,0,None,1,,,0,129,129,129,408.1259200999921,,,,,,,,,,,408.11248919999343,408.1259200999921,408.1259200999921,408.3092365000048,408.3253485999885,,410.110672299983,None,1,,,000010,001,2024-10-09_12h45.12.720,cpt_test,2024.2.2,60.20487719768844,2024-10-09 12h46.13.163274 -0600,
131,L,0,None,130,130,0,None,1,,,0,130,130,130,410.1240160999878,,,,,,,,,,,410.1108877999941,410.1240160999878,410.1240160999878,410.30702809998184,410.32369239997934,,412.10868609999306,None,1,,,000010,001,2024-10-09_12h45.12.720,cpt_test,2024.2.2,60.20487719768844,2024-10-09 12h46.13.163274 -0600,
132,F,0,None,131,131,0,None,1,,,0,131,131,131,412.12217719998443,,,,,,,,,,,412.1088758999831,412.12217719998443,412.12217719998443,412.3056485999841,412.32179799998994,,414.1065137999831,None,1,,,000010,001,2024-10-09_12h45.12.720,cpt_test,2024.2.2,60.20487719768844,2024-10-09 12h46.13.163274 -0600,
133,E,0,None,132,132,0,None,1,,,0,132,132,132,414.120700999978,,,,,,,,,,,414.1066878999991,414.120700999978,414.120700999978,414.30383509999956,414.3202580999932,,416.1046351999976,None,1,,,000010,001,2024-10-09_12h45.12.720,cpt_test,2024.2.2,60.20487719768844,2024-10-09 12h46.13.163274 -0600,
134,L,0,None,133,133,0,None,1,,,0,133,133,133,416.11925769998925,,,,,,,,,,,416.10478919997695,416.11925769998925,416.11925769998925,416.30230939999456,416.31853469999623,,418.103455799981,None,1,,,000010,001,2024-10-09_12h45.12.720,cpt_test,2024.2.2,60.20487719768844,2024-10-09 12h46.13.163274 -0600,
135,K,0,None,134,134,0,None,1,,,0,134,134,134,418.1176620000042,,,,,,,,,,,418.1036053999851,418.1176620000042,418.1176620000042,418.30081709998194,418.3171032999817,,420.10270339998533,None,1,,,000010,001,2024-10-09_12h45.12.720,cpt_test,2024.2.2,60.20487719768844,2024-10-09 12h46.13.163274 -0600,
136,Q,0,None,135,135,0,None,1,,,0,135,135,135,420.1159507999837,,,,,,,,,,,420.10290470000473,420.1159507999837,420.1159507999837,420.31546849998995,420.31546849998995,,422.11685699998634,None,1,,,000010,001,2024-10-09_12h45.12.720,cpt_test,2024.2.2,60.20487719768844,2024-10-09 12h46.13.163274 -0600,
137,X,1,x,136,136,0,x,1,0.3113301999983378,0.15780100002302788,0,136,136,136,422.1307977999968,,,,,,,,,,,422.1170288999856,422.1307977999968,422.1307977999968,422.31373759999406,422.3303130999848,,424.1149075999856,x,1,0.3113301999983378,0.15780100002302788,000010,001,2024-10-09_12h45.12.720,cpt_test,2024.2.2,60.20487719768844,2024-10-09 12h46.13.163274 -0600,
138,J,0,None,137,137,0,None,1,,,0,137,137,137,424.1291302999889,,,,,,,,,,,424.1150653999939,424.1291302999889,424.1291302999889,424.3122285999998,424.3285598999937,,426.11304719999316,None,1,,,000010,001,2024-10-09_12h45.12.720,cpt_test,2024.2.2,60.20487719768844,2024-10-09 12h46.13.163274 -0600,
139,X,1,x,138,138,0,x,1,0.4205998000106774,0.1800461999955587,0,138,138,138,426.1273745999788,,,,,,,,,,,426.1131851999962,426.1273745999788,426.1273745999788,426.3107030999963,426.3269353999931,,428.11226169997826,x,1,0.4205998000106774,0.1800461999955587,000010,001,2024-10-09_12h45.12.720,cpt_test,2024.2.2,60.20487719768844,2024-10-09 12h46.13.163274 -0600,
140,E,0,None,139,139,0,None,1,,,0,139,139,139,428.1259808999894,,,,,,,,,,,428.1124783999985,428.1259808999894,428.1259808999894,428.30917369999224,428.3255803999782,,430.11081959999865,None,1,,,000010,001,2024-10-09_12h45.12.720,cpt_test,2024.2.2,60.20487719768844,2024-10-09 12h46.13.163274 -0600,
141,T,0,None,140,140,0,None,1,,,0,140,140,140,430.1242821000051,,,,,,,,,,,430.11100330000045,430.1242821000051,430.1242821000051,430.3073319999967,430.3237460999808,,432.108448199986,None,1,,,000010,001,2024-10-09_12h45.12.720,cpt_test,2024.2.2,60.20487719768844,2024-10-09 12h46.13.163274 -0600,
142,X,1,x,141,141,0,x,1,0.4333803999761585,0.21543220002786256,0,141,141,141,432.1229875999852,,,,,,,,,,,432.1085835999984,432.1229875999852,432.1229875999852,432.30562549998285,432.32221809998737,,434.1070917999896,x,1,0.4333803999761585,0.21543220002786256,000010,001,2024-10-09_12h45.12.720,cpt_test,2024.2.2,60.20487719768844,2024-10-09 12h46.13.163274 -0600,
143,Q,0,None,142,142,0,None,1,,,0,142,142,142,434.1208853999851,,,,,,,,,,,434.10727809998207,434.1208853999851,434.1208853999851,434.30423379997956,434.32068179998896,,436.1048596999899,None,1,,,000010,001,2024-10-09_12h45.12.720,cpt_test,2024.2.2,60.20487719768844,2024-10-09 12h46.13.163274 -0600,
144,V,0,None,143,143,0,None,1,,,0,143,143,143,436.1194528999913,,,,,,,,,,,436.1050267999817,436.1194528999913,436.1194528999913,436.30221699998947,436.3188073000056,,438.103755499993,None,1,,,000010,001,2024-10-09_12h45.12.720,cpt_test,2024.2.2,60.20487719768844,2024-10-09 12h46.13.163274 -0600,
145,Y,0,None,144,144,0,None,1,,,0,144,144,144,438.11760159998084,,,,,,,,,,,438.1039300999837,438.11760159998084,438.11760159998084,438.3006921999913,438.31723119999515,,440.1022690999962,None,1,,,000010,001,2024-10-09_12h45.12.720,cpt_test,2024.2.2,60.20487719768844,2024-10-09 12h46.13.163274 -0600,
146,O,0,None,145,145,0,None,1,,,0,145,145,145,440.11602829999174,,,,,,,,,,,440.10243499997887,440.11602829999174,440.11602829999174,440.2991696999816,440.31553839999833,442.114127799985,442.1167082999891,None,1,,,000010,001,2024-10-09_12h45.12.720,cpt_test,2024.2.2,60.20487719768844,2024-10-09 12h46.13.163274 -0600,
147,T,0,None,146,146,0,None,1,,,0,146,146,146,442.1312360999873,,,,,,,,,,,442.11685329998727,442.1312360999873,442.1312360999873,442.3140752000036,442.33039489999646,,444.11528699999326,None,1,,,000010,001,2024-10-09_12h45.12.720,cpt_test,2024.2.2,60.20487719768844,2024-10-09 12h46.13.163274 -0600,
148,X,1,x,147,147,0,x,1,0.3328190000029281,0.15899160000844859,0,147,147,147,444.12938399999985,,,,,,,,,,,444.1154405999987,444.12938399999985,444.12938399999985,444.31243849999737,444.32883379998384,,446.11327519998304,x,1,0.3328190000029281,0.15899160000844859,000010,001,2024-10-09_12h45.12.720,cpt_test,2024.2.2,60.20487719768844,2024-10-09 12h46.13.163274 -0600,
149,T,0,None,148,148,0,None,1,,,0,148,148,148,446.12775449999026,,,,,,,,,,,446.1134315999807,446.12775449999026,446.12775449999026,446.3110578999913,446.32725189998746,,448.1117823999957,None,1,,,000010,001,2024-10-09_12h45.12.720,cpt_test,2024.2.2,60.20487719768844,2024-10-09 12h46.13.163274 -0600,
150,S,0,None,149,149,0,None,1,,,0,149,149,149,448.1259108999802,,,,,,,,,,,448.11193829998956,448.1259108999802,448.1259108999802,448.30917259998387,448.3253796999925,,450.1113066999824,None,1,,,000010,001,2024-10-09_12h45.12.720,cpt_test,2024.2.2,60.20487719768844,2024-10-09 12h46.13.163274 -0600,
151,L,0,None,150,150,0,None,1,,,0,150,150,150,450.1244550999836,,,,,,,,,,,450.1115132999839,450.1244550999836,450.1244550999836,450.30742239998654,450.3238274999894,,452.10918649999076,None,1,,,000010,001,2024-10-09_12h45.12.720,cpt_test,2024.2.2,60.20487719768844,2024-10-09 12h46.13.163274 -0600,
152,V,0,None,151,151,0,None,1,,,0,151,151,151,452.1229389999935,,,,,,,,,,,452.10936109998147,452.1229389999935,452.1229389999935,452.30602259997977,452.32235859998036,,454.1068860999949,None,1,,,000010,001,2024-10-09_12h45.12.720,cpt_test,2024.2.2,60.20487719768844,2024-10-09 12h46.13.163274 -0600,
153,C,0,None,152,152,0,None,1,,,0,152,152,152,454.12110649998067,,,,,,,,,,,454.1070400000026,454.12110649998067,454.12110649998067,454.3046996000048,454.32042720000027,,456.10532479998074,None,1,,,000010,001,2024-10-09_12h45.12.720,cpt_test,2024.2.2,60.20487719768844,2024-10-09 12h46.13.163274 -0600,
154,U,0,None,153,153,0,None,1,,,0,153,153,153,456.1197426999861,,,,,,,,,,,456.10548410000047,456.1197426999861,456.1197426999861,456.30274409998674,456.31902779999655,,458.10440839998773,None,1,,,000010,001,2024-10-09_12h45.12.720,cpt_test,2024.2.2,60.20487719768844,2024-10-09 12h46.13.163274 -0600,
155,X,1,x,154,154,0,x,1,0.3267235000093933,0.17698449999443255,0,154,154,154,458.1177670999896,,,,,,,,,,,458.1045973,458.1177670999896,458.1177670999896,458.30090889998246,458.31720219997806,,460.10190729997703,x,1,0.3267235000093933,0.17698449999443255,000010,001,2024-10-09_12h45.12.720,cpt_test,2024.2.2,60.20487719768844,2024-10-09 12h46.13.163274 -0600,
156,X,1,x,155,155,0,x,1,0.44871659998898394,0.168938499991782,0,155,155,155,460.11616879998473,,,,,,,,,,,460.1020656999899,460.11616879998473,460.11616879998473,460.29951290000463,460.3156105999951,,462.1011001000006,x,1,0.44871659998898394,0.168938499991782,000010,001,2024-10-09_12h45.12.720,cpt_test,2024.2.2,60.20487719768844,2024-10-09 12h46.13.163274 -0600,
157,L,0,None,156,156,0,None,1,,,0,156,156,156,462.1146638999926,,,,,,,,,,,462.1013058999961,462.1146638999926,462.1146638999926,462.31395699997665,462.31395699997665,,464.11545959999785,None,1,,,000010,001,2024-10-09_12h45.12.720,cpt_test,2024.2.2,60.20487719768844,2024-10-09 12h46.13.163274 -0600,
158,W,0,None,157,157,0,None,1,,,0,157,157,157,464.1298992999946,,,,,,,,,,,464.11561459998484,464.1298992999946,464.1298992999946,464.31300799999735,464.32892279999214,,466.1133620000037,None,1,,,000010,001,2024-10-09_12h45.12.720,cpt_test,2024.2.2,60.20487719768844,2024-10-09 12h46.13.163274 -0600,
159,A,0,None,158,158,0,None,1,,,0,158,158,158,466.12790659998427,,,,,,,,,,,466.1134975999885,466.12790659998427,466.12790659998427,466.3111401999777,466.3272507999791,,468.1121926000051,None,1,,,000010,001,2024-10-09_12h45.12.720,cpt_test,2024.2.2,60.20487719768844,2024-10-09 12h46.13.163274 -0600,
160,X,1,x,159,159,0,x,1,0.4333879000041634,0.1536816000007093,0,159,159,159,468.12607669999124,,,,,,,,,,,468.1123505999858,468.12607669999124,468.12607669999124,468.3095536000037,468.3259397999791,,470.1107892,x,1,0.4333879000041634,0.1536816000007093,000010,001,2024-10-09_12h45.12.720,cpt_test,2024.2.2,60.20487719768844,2024-10-09 12h46.13.163274 -0600,
161,A,0,None,160,160,0,None,1,,,0,160,160,160,470.1244723999989,,,,,,,,,,,470.1109793999931,470.1244723999989,470.1244723999989,470.3079977000016,470.3242445999931,,472.1087447000027,None,1,,,000010,001,2024-10-09_12h45.12.720,cpt_test,2024.2.2,60.20487719768844,2024-10-09 12h46.13.163274 -0600,
162,M,0,None,161,161,0,None,1,,,0,161,161,161,472.122833100002,,,,,,,,,,,472.10889750000206,472.122833100002,472.122833100002,472.3062635999813,472.3225550999923,,474.10704089998035,None,1,,,000010,001,2024-10-09_12h45.12.720,cpt_test,2024.2.2,60.20487719768844,2024-10-09 12h46.13.163274 -0600,
163,X,1,x,162,162,0,x,1,0.3453258000081405,0.16781429998809472,0,162,162,162,474.1213579000032,,,,,,,,,,,474.10718160000397,474.1213579000032,474.1213579000032,474.3043806999922,474.3209483999817,,476.1054235000047,x,1,0.3453258000081405,0.16781429998809472,000010,001,2024-10-09_12h45.12.720,cpt_test,2024.2.2,60.20487719768844,2024-10-09 12h46.13.163274 -0600,
164,X,1,x,163,163,0,x,1,0.38394880000851117,0.1638274000142701,0,163,163,163,476.11946909999824,,,,,,,,,,,476.1055755999987,476.11946909999824,476.11946909999824,476.30270349999773,476.3190861000039,,478.10390570000163,x,1,0.38394880000851117,0.1638274000142701,000010,001,2024-10-09_12h45.12.720,cpt_test,2024.2.2,60.20487719768844,2024-10-09 12h46.13.163274 -0600,
165,K,0,None,164,164,0,None,1,,,0,164,164,164,478.11823520000326,,,,,,,,,,,478.10406739998143,478.11823520000326,478.11823520000326,478.30133809999097,478.3176798999775,,480.10198049998144,None,1,,,000010,001,2024-10-09_12h45.12.720,cpt_test,2024.2.2,60.20487719768844,2024-10-09 12h46.13.163274 -0600,
166,X,1,x,165,165,0,x,1,0.3573601999960374,0.1909301999839954,0,165,165,165,480.11598819997744,,,,,,,,,,,480.10214159998577,480.11598819997744,480.11598819997744,480.2995938999811,480.3157554999925,,482.1011018999852,x,1,0.3573601999960374,0.1909301999839954,000010,001,2024-10-09_12h45.12.720,cpt_test,2024.2.2,60.20487719768844,2024-10-09 12h46.13.163274 -0600,
167,M,0,None,166,166,0,None,1,,,0,166,166,166,482.11483399997815,,,,,,,,,,,482.1013032000046,482.11483399997815,482.11483399997815,482.3142942999839,482.3142942999839,,484.11533749999944,None,1,,,000010,001,2024-10-09_12h45.12.720,cpt_test,2024.2.2,60.20487719768844,2024-10-09 12h46.13.163274 -0600,
168,X,1,x,167,167,0,x,1,0.3766360000008717,0.21983729998464696,0,167,167,167,484.12965180000174,,,,,,,,,,,484.1154782999947,484.12965180000174,484.12965180000174,484.3128588999971,484.32924459999776,,486.1133869999903,x,1,0.3766360000008717,0.21983729998464696,000010,001,2024-10-09_12h45.12.720,cpt_test,2024.2.2,60.20487719768844,2024-10-09 12h46.13.163274 -0600,
169,A,0,None,168,168,0,x,0,0.37887360001332127,0.20464589999755844,0,168,168,168,486.1279036999913,,,,,,,,,,,486.1135287999932,486.1279036999913,486.1279036999913,486.31162619998213,486.32777139998507,,488.1126832999871,x,0,0.37887360001332127,0.20464589999755844,000010,001,2024-10-09_12h45.12.720,cpt_test,2024.2.2,60.20487719768844,2024-10-09 12h46.13.163274 -0600,
170,X,1,x,169,169,0,x,1,0.4902954999997746,0.15449279997847043,0,169,169,169,488.1264450000017,,,,,,,,,,,488.1128820999875,488.1264450000017,488.1264450000017,488.3097984000051,488.3260470999812,,490.11056810000446,x,1,0.4902954999997746,0.15449279997847043,000010,001,2024-10-09_12h45.12.720,cpt_test,2024.2.2,60.20487719768844,2024-10-09 12h46.13.163274 -0600,
171,L,0,None,170,170,0,None,1,,,0,170,170,170,490.1246726999816,,,,,,,,,,,490.11072100000456,490.1246726999816,490.1246726999816,490.3078405999986,490.32431979998364,,492.10880899999756,None,1,,,000010,001,2024-10-09_12h45.12.720,cpt_test,2024.2.2,60.20487719768844,2024-10-09 12h46.13.163274 -0600,
172,E,0,None,171,171,0,None,1,,,0,171,171,171,492.1234494999808,,,,,,,,,,,492.1089501999959,492.1234494999808,492.1234494999808,492.30625209998107,492.32275140000274,,494.1069676000043,None,1,,,000010,001,2024-10-09_12h45.12.720,cpt_test,2024.2.2,60.20487719768844,2024-10-09 12h46.13.163274 -0600,
173,T,0,None,172,172,0,None,1,,,0,172,172,172,494.1218439999793,,,,,,,,,,,494.10711099999025,494.1218439999793,494.1218439999793,494.3046417000005,494.3212355999858,,496.1064500999928,None,1,,,000010,001,2024-10-09_12h45.12.720,cpt_test,2024.2.2,60.20487719768844,2024-10-09 12h46.13.163274 -0600,
174,F,0,None,173,173,0,None,1,,,0,173,173,173,496.11956969997846,,,,,,,,,,,496.1066564999928,496.11956969997846,496.11956969997846,496.30292960000224,496.319488899986,,498.1047188999946,None,1,,,000010,001,2024-10-09_12h45.12.720,cpt_test,2024.2.2,60.20487719768844,2024-10-09 12h46.13.163274 -0600,
175,M,0,None,174,174,0,None,1,,,0,174,174,174,498.1186371999793,,,,,,,,,,,498.1049140999967,498.1186371999793,498.1186371999793,498.3016304000048,498.31772639998235,,500.103280899988,None,1,,,000010,001,2024-10-09_12h45.12.720,cpt_test,2024.2.2,60.20487719768844,2024-10-09 12h46.13.163274 -0600,
176,Q,0,None,175,175,0,None,1,,,0,175,175,175,500.11673429998336,,,,,,,,,,,500.10350619998644,500.11673429998336,500.11673429998336,500.2999338999798,500.31598309997935,,502.10044310000376,None,1,,,000010,001,2024-10-09_12h45.12.720,cpt_test,2024.2.2,60.20487719768844,2024-10-09 12h46.13.163274 -0600,
177,M,0,None,176,176,0,None,1,,,0,176,176,176,502.1151042999991,,,,,,,,,,,502.10058179998305,502.1151042999991,502.1151042999991,502.31450549999136,502.31450549999136,,504.11582289999933,None,1,,,000010,001,2024-10-09_12h45.12.720,cpt_test,2024.2.2,60.20487719768844,2024-10-09 12h46.13.163274 -0600,
178,X,1,x,177,177,0,x,1,0.44356539999716915,0.16402060000109486,0,177,177,177,504.130070299987,,,,,,,,,,,504.11599930000375,504.130070299987,504.130070299987,504.3129804999917,504.329173599981,,506.1141228999768,x,1,0.44356539999716915,0.16402060000109486,000010,001,2024-10-09_12h45.12.720,cpt_test,2024.2.2,60.20487719768844,2024-10-09 12h46.13.163274 -0600,
179,V,0,None,178,178,0,None,1,,,0,178,178,178,506.12835240000277,,,,,,,,,,,506.1142705999955,506.12835240000277,506.12835240000277,506.31124089998775,506.32794190000277,,508.11270129997865,None,1,,,000010,001,2024-10-09_12h45.12.720,cpt_test,2024.2.2,60.20487719768844,2024-10-09 12h46.13.163274 -0600,
180,M,0,None,179,179,0,None,1,,,0,179,179,179,508.1266306999896,,,,,,,,,,,508.11286349999136,508.1266306999896,508.1266306999896,508.30937730000005,508.3257481000037,,510.11109359998954,None,1,,,000010,001,2024-10-09_12h45.12.720,cpt_test,2024.2.2,60.20487719768844,2024-10-09 12h46.13.163274 -0600,
181,P,0,None,180,180,0,None,1,,,0,180,180,180,510.12552689999575,,,,,,,,,,,510.1112357999955,510.12552689999575,510.12552689999575,510.30843969999114,510.32447110000066,,512.1094305999868,None,1,,,000010,001,2024-10-09_12h45.12.720,cpt_test,2024.2.2,60.20487719768844,2024-10-09 12h46.13.163274 -0600,
182,K,0,None,181,181,0,None,1,,,0,181,181,181,512.1236721999885,,,,,,,,,,,512.1095924999972,512.1236721999885,512.1236721999885,512.3065675999969,512.3229824999871,,514.1075619999901,None,1,,,000010,001,2024-10-09_12h45.12.720,cpt_test,2024.2.2,60.20487719768844,2024-10-09 12h46.13.163274 -0600,
183,V,0,None,182,182,0,None,1,,,0,182,182,182,514.12175749999,,,,,,,,,,,514.1077295999858,514.12175749999,514.12175749999,514.3049416999856,514.3210813000042,,516.1073230000038,None,1,,,000010,001,2024-10-09_12h45.12.720,cpt_test,2024.2.2,60.20487719768844,2024-10-09 12h46.13.163274 -0600,
184,G,0,None,183,183,0,None,1,,,0,183,183,183,516.1199425999948,,,,,,,,,,,516.1075665999961,516.1199425999948,516.1199425999948,516.3032444999844,516.3196862000041,,518.1047691999993,None,1,,,000010,001,2024-10-09_12h45.12.720,cpt_test,2024.2.2,60.20487719768844,2024-10-09 12h46.13.163274 -0600,
185,L,0,None,184,184,0,None,1,,,0,184,184,184,518.1184613999794,,,,,,,,,,,518.1049606000015,518.1184613999794,518.1184613999794,518.3014926000033,518.3180764999997,,520.1025126999884,None,1,,,000010,001,2024-10-09_12h45.12.720,cpt_test,2024.2.2,60.20487719768844,2024-10-09 12h46.13.163274 -0600,
186,Q,0,None,185,185,0,None,1,,,0,185,185,185,520.1170012999792,,,,,,,,,,,520.1026534999837,520.1170012999792,520.1170012999792,520.3000956999895,520.3164365999983,,522.1007580999867,None,1,,,000010,001,2024-10-09_12h45.12.720,cpt_test,2024.2.2,60.20487719768844,2024-10-09 12h46.13.163274 -0600,
187,N,0,None,186,186,0,None,1,,,0,186,186,186,522.1150953999895,,,,,,,,,,,522.1008996999881,522.1150953999895,522.1150953999895,522.3145625999896,522.3145625999896,,524.117780999979,None,1,,,000010,001,2024-10-09_12h45.12.720,cpt_test,2024.2.2,60.20487719768844,2024-10-09 12h46.13.163274 -0600,
188,K,0,None,187,187,0,None,1,,,0,187,187,187,524.1300187000015,,,,,,,,,,,524.118049199984,524.1300187000015,524.1300187000015,524.3131979999889,524.3296486999898,,526.1142419999815,None,1,,,000010,001,2024-10-09_12h45.12.720,cpt_test,2024.2.2,60.20487719768844,2024-10-09 12h46.13.163274 -0600,
189,C,0,None,188,188,0,None,1,,,0,188,188,188,526.1287579999771,,,,,,,,,,,526.1143879999872,526.1287579999771,526.1287579999771,526.3120013999869,526.3278041000012,,528.1133333999896,None,1,,,000010,001,2024-10-09_12h45.12.720,cpt_test,2024.2.2,60.20487719768844,2024-10-09 12h46.13.163274 -0600,
190,Z,0,None,189,189,0,None,1,,,0,189,189,189,528.1269659999816,,,,,,,,,,,528.1135275999841,528.1269659999816,528.1269659999816,528.3099583000003,528.3265063999861,,530.1118214000016,None,1,,,000010,001,2024-10-09_12h45.12.720,cpt_test,2024.2.2,60.20487719768844,2024-10-09 12h46.13.163274 -0600,
191,I,0,None,190,190,0,None,1,,,0,190,190,190,530.1248010999989,,,,,,,,,,,530.1120173999807,530.1248010999989,530.1248010999989,530.3081024999847,530.3246242000023,,532.1107596999791,None,1,,,000010,001,2024-10-09_12h45.12.720,cpt_test,2024.2.2,60.20487719768844,2024-10-09 12h46.13.163274 -0600,
192,J,0,None,191,191,0,None,1,,,0,191,191,191,532.1235184999823,,,,,,,,,,,532.1109976999869,532.1235184999823,532.1235184999823,532.3066125999903,532.323196399986,,534.108198699978,None,1,,,000010,001,2024-10-09_12h45.12.720,cpt_test,2024.2.2,60.20487719768844,2024-10-09 12h46.13.163274 -0600,
193,X,1,x,192,192,0,x,1,0.3537744999921415,0.16861620001145639,0,192,192,192,534.1217579999939,,,,,,,,,,,534.1083819999767,534.1217579999939,534.1217579999939,534.3049143999815,534.3214668,,536.1071728999959,x,1,0.3537744999921415,0.16861620001145639,000010,001,2024-10-09_12h45.12.720,cpt_test,2024.2.2,60.20487719768844,2024-10-09 12h46.13.163274 -0600,
194,E,0,None,193,193,0,None,1,,,0,193,193,193,536.1203212999972,,,,,,,,,,,536.1074064999993,536.1203212999972,536.1203212999972,536.3035635999986,536.3197818000044,,538.104282299988,None,1,,,000010,001,2024-10-09_12h45.12.720,cpt_test,2024.2.2,60.20487719768844,2024-10-09 12h46.13.163274 -0600,
195,X,1,x,194,194,0,x,1,0.3844093000225257,0.1599477999843657,0,194,194,194,538.1186375999823,,,,,,,,,,,538.1044339999789,538.1186375999823,538.1186375999823,538.301706600003,538.318305599998,,540.103006099991,x,1,0.3844093000225257,0.1599477999843657,000010,001,2024-10-09_12h45.12.720,cpt_test,2024.2.2,60.20487719768844,2024-10-09 12h46.13.163274 -0600,
196,X,1,x,195,195,0,x,1,0.3611048999882769,0.15950549999251962,0,195,195,195,540.1168195999926,,,,,,,,,,,540.103179800004,540.1168195999926,540.1168195999926,540.3002126999781,540.3167199000018,,542.1012662999856,x,1,0.3611048999882769,0.15950549999251962,000010,001,2024-10-09_12h45.12.720,cpt_test,2024.2.2,60.20487719768844,2024-10-09 12h46.13.163274 -0600,
197,O,0,None,196,196,0,None,1,,,0,196,196,196,542.1151625999773,,,,,,,,,,,542.1014283999975,542.1151625999773,542.1151625999773,542.3148037999927,542.3148037999927,,544.1158625999815,None,1,,,000010,001,2024-10-09_12h45.12.720,cpt_test,2024.2.2,60.20487719768844,2024-10-09 12h46.13.163274 -0600,
198,X,1,x,197,197,0,x,1,0.417082300002221,0.15910109999822453,0,197,197,197,544.1303260999848,,,,,,,,,,,544.1160009999876,544.1303260999848,544.1303260999848,544.3137047999771,544.3297840000014,,546.1142567999777,x,1,0.417082300002221,0.15910109999822453,000010,001,2024-10-09_12h45.12.720,cpt_test,2024.2.2,60.20487719768844,2024-10-09 12h46.13.163274 -0600,
199,T,0,None,198,198,0,None,1,,,0,198,198,198,546.1288440999924,,,,,,,,,,,546.1144251999795,546.1288440999924,546.1288440999924,546.3115916999814,546.3283000999945,,548.1133569999947,None,1,,,000010,001,2024-10-09_12h45.12.720,cpt_test,2024.2.2,60.20487719768844,2024-10-09 12h46.13.163274 -0600,
200,X,1,x,199,199,0,x,1,0.324989499989897,0.18273510001017712,0,199,199,199,548.1272067999816,,,,,,,,,,,548.1135305999778,548.1272067999816,548.1272067999816,548.3100202999776,548.3263954999857,,550.1116573000036,x,1,0.324989499989897,0.18273510001017712,000010,001,2024-10-09_12h45.12.720,cpt_test,2024.2.2,60.20487719768844,2024-10-09 12h46.13.163274 -0600,
201,L,0,None,200,200,0,None,1,,,0,200,200,200,550.125410299981,,,,,,,,,,,550.1118615999876,550.125410299981,550.125410299981,550.3084197999851,550.3249559999967,,552.1097260999959,None,1,,,000010,001,2024-10-09_12h45.12.720,cpt_test,2024.2.2,60.20487719768844,2024-10-09 12h46.13.163274 -0600,
