Number,letra,target,correctas,thisN,thisTrialN,thisRepN,respuesta.keys,respuesta.corr,respuesta.rt,respuesta.duration,trials.thisRepN,trials.thisTrialN,trials.thisN,trials.thisIndex,thisRow.t,notes,Ojos_abiertos.started,Abiertos.started,Ojos_abiertos.stopped,Ojos_cerrados.started,Cerrados.started,alert.started,Cerrados.stopped,alert.stopped,Ojos_cerrados.stopped,Test.started,prueba.started,respuesta.started,text.started,prueba.stopped,Test.stopped,trials.respuesta.keys,trials.respuesta.corr,trials.respuesta.rt,trials.respuesta.duration,text.stopped,participant,session,date,expName,psychopyVersion,frameRate,expStart,
,,,,,,,,,,,,,,,,,0.013103799981763586,0.0223827000008896,90.00987939999322,,,,,,,,,,,,,,,,,,000016,001,2024-10-10_12h47.00.106,cpt_test,2024.2.2,60.01172629327892,2024-10-10 12h47.53.338103 -0600,
,,,,,,,,,,,,,,,,,,,,90.02257239999017,90.03299289999995,150.00490926666342,150.0382464999857,150.3408739999868,150.11248209999758,,,,,,,,,,,,000016,001,2024-10-10_12h47.00.106,cpt_test,2024.2.2,60.01172629327892,2024-10-10 12h47.53.338103 -0600,
1,A,0,None,0,0,0,None,1,,,0,0,0,0,150.3408739999868,,,,,,,,,,,150.1604490999889,150.3408739999868,150.3408739999868,150.35365229999297,150.55441909999354,152.11003169999458,None,1,,,,000016,001,2024-10-10_12h47.00.106,cpt_test,2024.2.2,60.01172629327892,2024-10-10 12h47.53.338103 -0600,
2,R,0,None,1,1,0,None,1,,,0,1,1,1,152.14210559998173,,,,,,,,,,,152.11047079999116,152.14210559998173,152.14210559998173,152.3033884000033,152.35288500000024,154.10750869999174,None,1,,,,000016,001,2024-10-10_12h47.00.106,cpt_test,2024.2.2,60.01172629327892,2024-10-10 12h47.53.338103 -0600,
3,L,0,None,2,2,0,None,1,,,0,2,2,2,154.1374397999898,,,,,,,,,,,154.10781759998645,154.1374397999898,154.1374397999898,154.30225619999692,154.35291580000194,156.10583889999543,None,1,,,,000016,001,2024-10-10_12h47.00.106,cpt_test,2024.2.2,60.01172629327892,2024-10-10 12h47.53.338103 -0600,
4,X,1,x,3,3,0,x,1,0.4291672999970615,0.18625780000002123,0,3,3,3,156.13600299999234,,,,,,,,,,,156.1061483999947,156.13600299999234,156.13600299999234,156.30009350000182,156.3497012000007,158.10390149999876,x,1,0.4291672999970615,0.18625780000002123,,000016,001,2024-10-10_12h47.00.106,cpt_test,2024.2.2,60.01172629327892,2024-10-10 12h47.53.338103 -0600,
5,O,0,None,4,4,0,None,1,,,0,4,4,4,158.14373630000046,,,,,,,,,,,158.10425030000624,158.14373630000046,158.14373630000046,158.31500390000292,158.3481017999875,160.10244610000518,None,1,,,,000016,001,2024-10-10_12h47.00.106,cpt_test,2024.2.2,60.01172629327892,2024-10-10 12h47.53.338103 -0600,
6,G,0,None,5,5,0,None,1,,,0,5,5,5,160.12625929998467,,,,,,,,,,,160.10263779998058,160.12625929998467,160.12625929998467,160.31339229998412,160.32982339998125,162.1175973000063,None,1,,,,000016,001,2024-10-10_12h47.00.106,cpt_test,2024.2.2,60.01172629327892,2024-10-10 12h47.53.338103 -0600,
7,P,0,None,6,6,0,None,1,,,0,6,6,6,162.14730769998278,,,,,,,,,,,162.11794149997877,162.14730769998278,162.14730769998278,162.31172529998003,162.3615715999913,164.11595579999266,None,1,,,,000016,001,2024-10-10_12h47.00.106,cpt_test,2024.2.2,60.01172629327892,2024-10-10 12h47.53.338103 -0600,
8,X,1,x,7,7,0,x,1,0.4027621999848634,0.18099390002316795,0,7,7,7,164.12906629999634,,,,,,,,,,,164.11628889999702,164.12906629999634,164.12906629999634,164.3102138999966,164.34325409997837,166.11411709999084,x,1,0.4027621999848634,0.18099390002316795,,000016,001,2024-10-10_12h47.00.106,cpt_test,2024.2.2,60.01172629327892,2024-10-10 12h47.53.338103 -0600,
9,X,1,x,8,8,0,x,1,0.4474353000114206,0.14750339998863637,0,8,8,8,166.1253872999805,,,,,,,,,,,166.11446690000594,166.1253872999805,166.1253872999805,166.30840879998868,166.32486699998844,168.11272509998525,x,1,0.4474353000114206,0.14750339998863637,,000016,001,2024-10-10_12h47.00.106,cpt_test,2024.2.2,60.01172629327892,2024-10-10 12h47.53.338103 -0600,
10,Z,0,None,9,9,0,None,1,,,0,9,9,9,168.1432109999878,,,,,,,,,,,168.1130744999973,168.1432109999878,168.1432109999878,168.30673069998738,168.3565408999857,170.11080799999763,None,1,,,,000016,001,2024-10-10_12h47.00.106,cpt_test,2024.2.2,60.01172629327892,2024-10-10 12h47.53.338103 -0600,
11,I,0,None,10,10,0,None,1,,,0,10,10,10,170.14014339999994,,,,,,,,,,,170.11113829998067,170.14014339999994,170.14014339999994,170.30511159999878,170.3549134999921,172.10927169999923,None,1,,,,000016,001,2024-10-10_12h47.00.106,cpt_test,2024.2.2,60.01172629327892,2024-10-10 12h47.53.338103 -0600,
12,D,0,None,11,11,0,None,1,,,0,11,11,11,172.14155080000637,,,,,,,,,,,172.10959779997938,172.14155080000637,172.14155080000637,172.30645730000106,172.35329149998142,174.1073910999985,None,1,,,,000016,001,2024-10-10_12h47.00.106,cpt_test,2024.2.2,60.01172629327892,2024-10-10 12h47.53.338103 -0600,
13,X,1,x,12,12,0,x,1,0.4096113999839872,0.1759652000037022,0,12,12,12,174.12048280000454,,,,,,,,,,,174.10769929998787,174.12048280000454,174.12048280000454,174.301959000004,174.3349871999817,176.10605420000502,x,1,0.4096113999839872,0.1759652000037022,,000016,001,2024-10-10_12h47.00.106,cpt_test,2024.2.2,60.01172629327892,2024-10-10 12h47.53.338103 -0600,
14,Y,0,None,13,13,0,None,1,,,0,13,13,13,176.13849919999484,,,,,,,,,,,176.1063812999928,176.13849919999484,176.13849919999484,176.3001699000015,176.34979239999666,178.103789899993,None,1,,,,000016,001,2024-10-10_12h47.00.106,cpt_test,2024.2.2,60.01172629327892,2024-10-10 12h47.53.338103 -0600,
15,X,1,x,14,14,0,x,1,0.310865899984492,0.12186290000681765,0,14,14,14,178.11633869999787,,,,,,,,,,,178.10410209998372,178.11633869999787,178.11633869999787,178.3152080999862,178.3315292999905,180.1027968999988,x,1,0.310865899984492,0.12186290000681765,,000016,001,2024-10-10_12h47.00.106,cpt_test,2024.2.2,60.01172629327892,2024-10-10 12h47.53.338103 -0600,
16,X,1,x,15,15,0,x,1,0.3889558999799192,0.15735040002618916,0,15,15,15,180.1139285999816,,,,,,,,,,,180.10315169999376,180.1139285999816,180.1139285999816,180.31415319998632,180.31415319998632,182.10076909998315,x,1,0.3889558999799192,0.15735040002618916,,000016,001,2024-10-10_12h47.00.106,cpt_test,2024.2.2,60.01172629327892,2024-10-10 12h47.53.338103 -0600,
17,A,0,None,16,16,0,None,1,,,0,16,16,16,182.1135246999911,,,,,,,,,,,182.10109479998937,182.1135246999911,182.1135246999911,182.31189139999333,182.32828649997828,184.11580559998401,None,1,,,,000016,001,2024-10-10_12h47.00.106,cpt_test,2024.2.2,60.01172629327892,2024-10-10 12h47.53.338103 -0600,
18,J,0,None,17,17,0,None,1,,,0,17,17,17,184.1443203999952,,,,,,,,,,,184.11611879998236,184.1443203999952,184.1443203999952,184.31027220000396,184.34351720000268,186.11409920000006,None,1,,,,000016,001,2024-10-10_12h47.00.106,cpt_test,2024.2.2,60.01172629327892,2024-10-10 12h47.53.338103 -0600,
19,G,0,None,18,18,0,None,1,,,0,18,18,18,186.12685509998119,,,,,,,,,,,186.1144102999824,186.12685509998119,186.12685509998119,186.30858250000165,186.34163909999188,188.11242699998547,None,1,,,,000016,001,2024-10-10_12h47.00.106,cpt_test,2024.2.2,60.01172629327892,2024-10-10 12h47.53.338103 -0600,
20,X,1,x,19,19,0,x,1,0.3211188999994192,0.15760030000819825,0,19,19,19,188.12505360000068,,,,,,,,,,,188.11273759999312,188.12505360000068,188.12505360000068,188.3070822999871,188.34004469998763,190.11294819999603,x,1,0.3211188999994192,0.15760030000819825,,000016,001,2024-10-10_12h47.00.106,cpt_test,2024.2.2,60.01172629327892,2024-10-10 12h47.53.338103 -0600,
21,T,0,None,20,20,0,None,1,,,0,20,20,20,190.1496987999999,,,,,,,,,,,190.11336409999058,190.1496987999999,190.1496987999999,190.30550489999587,190.35501099997782,192.109449999989,None,1,,,,000016,001,2024-10-10_12h47.00.106,cpt_test,2024.2.2,60.01172629327892,2024-10-10 12h47.53.338103 -0600,
22,S,0,None,21,21,0,None,1,,,0,21,21,21,192.14260019999347,,,,,,,,,,,192.1097876999993,192.14260019999347,192.14260019999347,192.30786679999437,192.3535658000037,194.107898199989,None,1,,,,000016,001,2024-10-10_12h47.00.106,cpt_test,2024.2.2,60.01172629327892,2024-10-10 12h47.53.338103 -0600,
23,X,1,x,22,22,0,x,1,0.2941223999951035,0.20531510000000708,0,22,22,22,194.12040980000165,,,,,,,,,,,194.1082078999898,194.12040980000165,194.12040980000165,194.30205939998268,194.33526809999603,196.10563089998323,x,1,0.2941223999951035,0.20531510000000708,,000016,001,2024-10-10_12h47.00.106,cpt_test,2024.2.2,60.01172629327892,2024-10-10 12h47.53.338103 -0600,
24,S,0,None,23,23,0,None,1,,,0,23,23,23,196.11829159999616,,,,,,,,,,,196.1059527999896,196.11829159999616,196.11829159999616,196.30060210000374,196.3333649999986,198.10415169998305,None,1,,,,000016,001,2024-10-10_12h47.00.106,cpt_test,2024.2.2,60.01172629327892,2024-10-10 12h47.53.338103 -0600,
25,G,0,None,24,24,0,None,1,,,0,24,24,24,198.11704529999406,,,,,,,,,,,198.10448009998072,198.11704529999406,198.11704529999406,198.31550969998352,198.33171629998833,200.10240249999333,None,1,,,,000016,001,2024-10-10_12h47.00.106,cpt_test,2024.2.2,60.01172629327892,2024-10-10 12h47.53.338103 -0600,
26,O,0,None,25,25,0,None,1,,,0,25,25,25,200.11506609999924,,,,,,,,,,,200.1027181999816,200.11506609999924,200.11506609999924,200.31393219999154,200.33007619998534,202.10266899998533,None,1,,,,000016,001,2024-10-10_12h47.00.106,cpt_test,2024.2.2,60.01172629327892,2024-10-10 12h47.53.338103 -0600,
27,P,0,None,26,26,0,None,1,,,0,26,26,26,202.11688950000098,,,,,,,,,,,202.1030589999864,202.11688950000098,202.11688950000098,202.31202969999867,202.32868579999194,204.11590799997794,None,1,,,,000016,001,2024-10-10_12h47.00.106,cpt_test,2024.2.2,60.01172629327892,2024-10-10 12h47.53.338103 -0600,
28,Z,0,None,27,27,0,None,1,,,0,27,27,27,204.12880189999123,,,,,,,,,,,204.11621750000631,204.12880189999123,204.12880189999123,204.31058140000096,204.34348859998863,206.11480119999032,None,1,,,,000016,001,2024-10-10_12h47.00.106,cpt_test,2024.2.2,60.01172629327892,2024-10-10 12h47.53.338103 -0600,
29,X,1,x,28,28,0,x,1,0.2741047999879811,0.1504160000185948,0,28,28,28,206.12826309999218,,,,,,,,,,,206.11514549999265,206.12826309999218,206.12826309999218,206.30895849998342,206.34198249998735,208.11270229998627,x,1,0.2741047999879811,0.1504160000185948,,000016,001,2024-10-10_12h47.00.106,cpt_test,2024.2.2,60.01172629327892,2024-10-10 12h47.53.338103 -0600,
30,I,0,None,29,29,0,None,1,,,0,29,29,29,208.12584279998555,,,,,,,,,,,208.113028199994,208.12584279998555,208.12584279998555,208.30712349998066,208.34023869998055,210.11233539998648,None,1,,,,000016,001,2024-10-10_12h47.00.106,cpt_test,2024.2.2,60.01172629327892,2024-10-10 12h47.53.338103 -0600,
31,F,0,None,30,30,0,None,1,,,0,30,30,30,210.1465884000063,,,,,,,,,,,210.1127440999844,210.1465884000063,210.1465884000063,210.30654499999946,210.35535609998624,212.10960559998057,None,1,,,,000016,001,2024-10-10_12h47.00.106,cpt_test,2024.2.2,60.01172629327892,2024-10-10 12h47.53.338103 -0600,
32,M,0,None,31,31,0,None,1,,,0,31,31,31,212.1442574999819,,,,,,,,,,,212.1099420999817,212.1442574999819,212.1442574999819,212.30648989998735,212.3537132999918,214.10774849998415,None,1,,,,000016,001,2024-10-10_12h47.00.106,cpt_test,2024.2.2,60.01172629327892,2024-10-10 12h47.53.338103 -0600,
33,T,0,None,32,32,0,None,1,,,0,32,32,32,214.12067289999686,,,,,,,,,,,214.10807610000484,214.12067289999686,214.12067289999686,214.3021930999821,214.334984599991,216.10649969999213,None,1,,,,000016,001,2024-10-10_12h47.00.106,cpt_test,2024.2.2,60.01172629327892,2024-10-10 12h47.53.338103 -0600,
34,A,0,None,33,33,0,None,1,,,0,33,33,33,216.1191307999834,,,,,,,,,,,216.1068135999958,216.1191307999834,216.1191307999834,216.30073940000148,216.3335334000003,218.10511979999137,None,1,,,,000016,001,2024-10-10_12h47.00.106,cpt_test,2024.2.2,60.01172629327892,2024-10-10 12h47.53.338103 -0600,
35,E,0,None,34,34,0,None,1,,,0,34,34,34,218.13146979999146,,,,,,,,,,,218.10544789998676,218.13146979999146,218.13146979999146,218.3157094999915,218.33182029999443,220.10300169998663,None,1,,,,000016,001,2024-10-10_12h47.00.106,cpt_test,2024.2.2,60.01172629327892,2024-10-10 12h47.53.338103 -0600,
36,X,1,x,35,35,0,x,1,0.29833760001929477,0.1677239999989979,0,35,35,35,220.11562209998374,,,,,,,,,,,220.10333689997788,220.11562209998374,220.11562209998374,220.31389520000084,220.3304589999898,222.10172720000264,x,1,0.29833760001929477,0.1677239999989979,,000016,001,2024-10-10_12h47.00.106,cpt_test,2024.2.2,60.01172629327892,2024-10-10 12h47.53.338103 -0600,
37,A,0,None,36,36,0,None,1,,,0,36,36,36,222.11460889998125,,,,,,,,,,,222.10208079998847,222.11460889998125,222.11460889998125,222.31223939999472,222.32871319999686,224.11645639999188,None,1,,,,000016,001,2024-10-10_12h47.00.106,cpt_test,2024.2.2,60.01172629327892,2024-10-10 12h47.53.338103 -0600,
38,S,0,None,37,37,0,None,1,,,0,37,37,37,224.12911029998213,,,,,,,,,,,224.11676259999513,224.12911029998213,224.12911029998213,224.31087819999084,224.3435513000004,226.11450379999587,None,1,,,,000016,001,2024-10-10_12h47.00.106,cpt_test,2024.2.2,60.01172629327892,2024-10-10 12h47.53.338103 -0600,
39,U,0,None,38,38,0,None,1,,,0,38,38,38,226.1430709999986,,,,,,,,,,,226.11481020000065,226.1430709999986,226.1430709999986,226.30921619999572,226.3419750999892,228.11330159998033,None,1,,,,000016,001,2024-10-10_12h47.00.106,cpt_test,2024.2.2,60.01172629327892,2024-10-10 12h47.53.338103 -0600,
40,U,0,None,39,39,0,None,1,,,0,39,39,39,228.1241702999978,,,,,,,,,,,228.11361219998798,228.1241702999978,228.1241702999978,228.30868269997882,228.32533369999146,230.1120355000021,None,1,,,,000016,001,2024-10-10_12h47.00.106,cpt_test,2024.2.2,60.01172629327892,2024-10-10 12h47.53.338103 -0600,
41,Q,0,None,40,40,0,None,1,,,0,40,40,40,230.14119789999677,,,,,,,,,,,230.11239349999232,230.14119789999677,230.14119789999677,230.3058224999986,230.3553173999826,232.10986460000277,None,1,,,,000016,001,2024-10-10_12h47.00.106,cpt_test,2024.2.2,60.01172629327892,2024-10-10 12h47.53.338103 -0600,
42,E,0,None,41,41,0,None,1,,,0,41,41,41,232.12272559999838,,,,,,,,,,,232.11021679997793,232.12272559999838,232.12272559999838,232.30425529999775,232.3371436999878,234.11005990000558,None,1,,,,000016,001,2024-10-10_12h47.00.106,cpt_test,2024.2.2,60.01172629327892,2024-10-10 12h47.53.338103 -0600,
43,B,0,None,42,42,0,None,1,,,0,42,42,42,234.14390939997975,,,,,,,,,,,234.1104919000063,234.14390939997975,234.14390939997975,234.303974999988,234.35229489998892,236.1059483999852,None,1,,,,000016,001,2024-10-10_12h47.00.106,cpt_test,2024.2.2,60.01172629327892,2024-10-10 12h47.53.338103 -0600,
44,O,0,None,43,43,0,None,1,,,0,43,43,43,236.11844349998864,,,,,,,,,,,236.10625589999836,236.11844349998864,236.11844349998864,236.30094649997773,236.31718159999582,238.10456639999757,None,1,,,,000016,001,2024-10-10_12h47.00.106,cpt_test,2024.2.2,60.01172629327892,2024-10-10 12h47.53.338103 -0600,
45,E,0,None,44,44,0,None,1,,,0,44,44,44,238.11714879999636,,,,,,,,,,,238.1048855999834,238.11714879999636,238.11714879999636,238.31571559997974,238.33229779999238,240.10290329999407,None,1,,,,000016,001,2024-10-10_12h47.00.106,cpt_test,2024.2.2,60.01172629327892,2024-10-10 12h47.53.338103 -0600,
46,F,0,None,45,45,0,None,1,,,0,45,45,45,240.11549120000564,,,,,,,,,,,240.10321430000477,240.11549120000564,240.11549120000564,240.31399900000542,240.33044229997904,242.10172929998953,None,1,,,,000016,001,2024-10-10_12h47.00.106,cpt_test,2024.2.2,60.01172629327892,2024-10-10 12h47.53.338103 -0600,
47,V,0,None,46,46,0,None,1,,,0,46,46,46,242.1343571000034,,,,,,,,,,,242.10203849998652,242.1343571000034,242.1343571000034,242.299858399987,242.34554559999378,244.11653689999366,None,1,,,244.11070190000464,000016,001,2024-10-10_12h47.00.106,cpt_test,2024.2.2,60.01172629327892,2024-10-10 12h47.53.338103 -0600,
48,X,1,x,47,47,0,x,1,0.40376829999149777,0.13890630000969395,0,47,47,47,244.129163399979,,,,,,,,,,,244.11684559998685,244.129163399979,244.129163399979,244.31074359998456,244.34395909999148,246.11506320000626,x,1,0.40376829999149777,0.13890630000969395,,000016,001,2024-10-10_12h47.00.106,cpt_test,2024.2.2,60.01172629327892,2024-10-10 12h47.53.338103 -0600,
49,X,1,x,48,48,0,x,1,0.4016517999989446,0.1535516000003554,0,48,48,48,246.12616250000428,,,,,,,,,,,246.1154128999915,246.12616250000428,246.12616250000428,246.31025799998315,246.32689949998166,248.1143463999906,x,1,0.4016517999989446,0.1535516000003554,,000016,001,2024-10-10_12h47.00.106,cpt_test,2024.2.2,60.01172629327892,2024-10-10 12h47.53.338103 -0600,
50,C,0,None,49,49,0,None,1,,,0,49,49,49,248.14926869998453,,,,,,,,,,,248.11477749998448,248.14926869998453,248.14926869998453,248.311987699999,248.35707430000184,250.1117539999832,None,1,,,,000016,001,2024-10-10_12h47.00.106,cpt_test,2024.2.2,60.01172629327892,2024-10-10 12h47.53.338103 -0600,
51,M,0,None,50,50,0,None,1,,,0,50,50,50,250.12469799999963,,,,,,,,,,,250.11207730000024,250.12469799999963,250.12469799999963,250.3057365999848,250.3391112999816,252.10973959998228,None,1,,,,000016,001,2024-10-10_12h47.00.106,cpt_test,2024.2.2,60.01172629327892,2024-10-10 12h47.53.338103 -0600,
52,D,0,None,51,51,0,None,1,,,0,51,51,51,252.1224657999992,,,,,,,,,,,252.1100485000061,252.1224657999992,252.1224657999992,252.30443259997992,252.33742480000365,254.1084409999894,None,1,,,,000016,001,2024-10-10_12h47.00.106,cpt_test,2024.2.2,60.01172629327892,2024-10-10 12h47.53.338103 -0600,
53,X,1,x,52,52,0,x,1,0.30558299997937866,0.13819920000969432,0,52,52,52,254.12109030000283,,,,,,,,,,,254.10874559998047,254.12109030000283,254.12109030000283,254.3028290999937,254.3355828000058,256.10845040000277,x,1,0.30558299997937866,0.13819920000969432,,000016,001,2024-10-10_12h47.00.106,cpt_test,2024.2.2,60.01172629327892,2024-10-10 12h47.53.338103 -0600,
54,K,0,None,53,53,0,None,1,,,0,53,53,53,256.14442169998074,,,,,,,,,,,256.10885409999173,256.14442169998074,256.14442169998074,256.3010285999917,256.3505842000013,258.1055240999849,None,1,,,,000016,001,2024-10-10_12h47.00.106,cpt_test,2024.2.2,60.01172629327892,2024-10-10 12h47.53.338103 -0600,
55,X,1,x,54,54,0,x,1,0.4074436000082642,0.13386100000934675,0,54,54,54,258.1184293999977,,,,,,,,,,,258.10591439998825,258.1184293999977,258.1184293999977,258.316136199981,258.3323146000039,260.10367559999577,x,1,0.4074436000082642,0.13386100000934675,,000016,001,2024-10-10_12h47.00.106,cpt_test,2024.2.2,60.01172629327892,2024-10-10 12h47.53.338103 -0600,
56,N,0,None,55,55,0,None,1,,,0,55,55,55,260.12928850000026,,,,,,,,,,,260.10403600000427,260.12928850000026,260.12928850000026,260.3143199000042,260.3308276000025,262.1017777999805,None,1,,,,000016,001,2024-10-10_12h47.00.106,cpt_test,2024.2.2,60.01172629327892,2024-10-10 12h47.53.338103 -0600,
57,M,0,None,56,56,0,None,1,,,0,56,56,56,262.11434339999687,,,,,,,,,,,262.10208449998754,262.11434339999687,262.11434339999687,262.3128660999937,262.3291845000058,264.1149405000033,None,1,,,,000016,001,2024-10-10_12h47.00.106,cpt_test,2024.2.2,60.01172629327892,2024-10-10 12h47.53.338103 -0600,
58,X,1,x,57,57,0,x,1,0.28874120002728887,0.1479168999940157,0,57,57,57,264.12769090000074,,,,,,,,,,,264.1151861999824,264.12769090000074,264.12769090000074,264.31081529997755,264.3271378999925,266.1152544999786,x,1,0.28874120002728887,0.1479168999940157,,000016,001,2024-10-10_12h47.00.106,cpt_test,2024.2.2,60.01172629327892,2024-10-10 12h47.53.338103 -0600,
59,F,0,None,58,58,0,None,1,,,0,58,58,58,266.12829480000073,,,,,,,,,,,266.1156171000039,266.12829480000073,266.12829480000073,266.30935249998583,266.3425339999958,268.1148874000064,None,1,,,,000016,001,2024-10-10_12h47.00.106,cpt_test,2024.2.2,60.01172629327892,2024-10-10 12h47.53.338103 -0600,
60,A,0,None,59,59,0,None,1,,,0,59,59,59,268.1288329999952,,,,,,,,,,,268.11529610000434,268.1288329999952,268.1288329999952,268.3164744999958,268.3333163999778,270.11299160000635,None,1,,,,000016,001,2024-10-10_12h47.00.106,cpt_test,2024.2.2,60.01172629327892,2024-10-10 12h47.53.338103 -0600,
61,X,1,x,60,60,0,x,1,0.3095128000131808,0.12483039998915046,0,60,60,60,270.1270571000059,,,,,,,,,,,270.11338049999904,270.1270571000059,270.1270571000059,270.30605289997766,270.3392538999906,272.10984029999236,x,1,0.3095128000131808,0.12483039998915046,,000016,001,2024-10-10_12h47.00.106,cpt_test,2024.2.2,60.01172629327892,2024-10-10 12h47.53.338103 -0600,
62,V,0,None,61,61,0,None,1,,,0,61,61,61,272.12279939997825,,,,,,,,,,,272.11017410000204,272.12279939997825,272.12279939997825,272.3046403999906,272.33764749998227,274.1081822999986,None,1,,,,000016,001,2024-10-10_12h47.00.106,cpt_test,2024.2.2,60.01172629327892,2024-10-10 12h47.53.338103 -0600,
63,U,0,None,62,62,0,None,1,,,0,62,62,62,274.1209842999815,,,,,,,,,,,274.10849729998154,274.1209842999815,274.1209842999815,274.3028051999863,274.3358986999956,276.1071289999818,None,1,,,,000016,001,2024-10-10_12h47.00.106,cpt_test,2024.2.2,60.01172629327892,2024-10-10 12h47.53.338103 -0600,
64,M,0,None,63,63,0,None,1,,,0,63,63,63,276.1203072000062,,,,,,,,,,,276.10744940000586,276.1203072000062,276.1203072000062,276.3012122999935,276.334088899981,278.10529579999275,None,1,,,,000016,001,2024-10-10_12h47.00.106,cpt_test,2024.2.2,60.01172629327892,2024-10-10 12h47.53.338103 -0600,
65,X,1,x,64,64,0,x,1,0.3632470000011381,0.12154469999950379,0,64,64,64,278.1185648999817,,,,,,,,,,,278.1056297000032,278.1185648999817,278.1185648999817,278.3161278000043,278.3324190999847,280.10366059999797,x,1,0.3632470000011381,0.12154469999950379,,000016,001,2024-10-10_12h47.00.106,cpt_test,2024.2.2,60.01172629327892,2024-10-10 12h47.53.338103 -0600,
66,A,0,None,65,65,0,None,1,,,0,65,65,65,280.11701789998915,,,,,,,,,,,280.1040138999815,280.11701789998915,280.11701789998915,280.3146571999823,280.330974099983,282.1024237999809,None,1,,,,000016,001,2024-10-10_12h47.00.106,cpt_test,2024.2.2,60.01172629327892,2024-10-10 12h47.53.338103 -0600,
67,N,0,None,66,66,0,None,1,,,0,66,66,66,282.1158424000023,,,,,,,,,,,282.102790999983,282.1158424000023,282.1158424000023,282.31305279998924,282.32903090000036,284.1163880999957,None,1,,,,000016,001,2024-10-10_12h47.00.106,cpt_test,2024.2.2,60.01172629327892,2024-10-10 12h47.53.338103 -0600,
68,H,0,None,67,67,0,None,1,,,0,67,67,67,284.1469251999806,,,,,,,,,,,284.1166348999832,284.1469251999806,284.1469251999806,284.3114382000058,284.3608253999846,286.1138449999853,None,1,,,,000016,001,2024-10-10_12h47.00.106,cpt_test,2024.2.2,60.01172629327892,2024-10-10 12h47.53.338103 -0600,
69,A,0,None,68,68,0,None,1,,,0,68,68,68,286.1263597999932,,,,,,,,,,,286.11408909998136,286.1263597999932,286.1263597999932,286.3093893000041,286.32559989998117,288.1133186999941,None,1,,,,000016,001,2024-10-10_12h47.00.106,cpt_test,2024.2.2,60.01172629327892,2024-10-10 12h47.53.338103 -0600,
70,X,1,x,69,69,0,x,1,0.3394110999943223,0.12078850000398234,0,69,69,69,288.12706239998806,,,,,,,,,,,288.1136242999928,288.12706239998806,288.12706239998806,288.30756489999476,288.34066950000124,290.1116763000027,x,1,0.3394110999943223,0.12078850000398234,,000016,001,2024-10-10_12h47.00.106,cpt_test,2024.2.2,60.01172629327892,2024-10-10 12h47.53.338103 -0600,
71,F,0,None,70,70,0,None,1,,,0,70,70,70,290.1244775999803,,,,,,,,,,,290.11206169999787,290.1244775999803,290.1244775999803,290.306144400005,290.33921539998846,292.1091962000064,None,1,,,,000016,001,2024-10-10_12h47.00.106,cpt_test,2024.2.2,60.01172629327892,2024-10-10 12h47.53.338103 -0600,
72,N,0,None,71,71,0,None,1,,,0,71,71,71,292.1212574999954,,,,,,,,,,,292.1094668000005,292.1212574999954,292.1212574999954,292.3043541999941,292.32083499999135,294.1098015999887,None,1,,,,000016,001,2024-10-10_12h47.00.106,cpt_test,2024.2.2,60.01172629327892,2024-10-10 12h47.53.338103 -0600,
73,K,0,None,72,72,0,None,1,,,0,72,72,72,294.1238719999965,,,,,,,,,,,294.1101842999924,294.1238719999965,294.1238719999965,294.31045309998444,294.3268726999813,296.10669679997955,None,1,,,,000016,001,2024-10-10_12h47.00.106,cpt_test,2024.2.2,60.01172629327892,2024-10-10 12h47.53.338103 -0600,
74,Y,0,None,73,73,0,None,1,,,0,73,73,73,296.11927060000016,,,,,,,,,,,296.1070006999944,296.11927060000016,296.11927060000016,296.3015219999943,296.33445429999847,298.1064185999858,None,1,,,,000016,001,2024-10-10_12h47.00.106,cpt_test,2024.2.2,60.01172629327892,2024-10-10 12h47.53.338103 -0600,
75,Y,0,None,74,74,0,None,1,,,0,74,74,74,298.11658040000475,,,,,,,,,,,298.1068088999891,298.11658040000475,298.11658040000475,298.2998297000013,298.31598389998544,300.1061880000052,None,1,,,,000016,001,2024-10-10_12h47.00.106,cpt_test,2024.2.2,60.01172629327892,2024-10-10 12h47.53.338103 -0600,
76,R,0,None,75,75,0,None,1,,,0,75,75,75,300.1202454000013,,,,,,,,,,,300.10659609999857,300.1202454000013,300.1202454000013,300.3014096999832,300.3312640999793,302.1024902999925,None,1,,,,000016,001,2024-10-10_12h47.00.106,cpt_test,2024.2.2,60.01172629327892,2024-10-10 12h47.53.338103 -0600,
77,X,1,x,76,76,0,x,1,0.38769519998459145,0.15277750001405366,0,76,76,76,302.1162223999854,,,,,,,,,,,302.1027983999811,302.1162223999854,302.1162223999854,302.3139123999863,302.3302393000049,304.1178110000037,x,1,0.38769519998459145,0.15277750001405366,,000016,001,2024-10-10_12h47.00.106,cpt_test,2024.2.2,60.01172629327892,2024-10-10 12h47.53.338103 -0600,
78,R,0,None,77,77,0,None,1,,,0,77,77,77,304.1309135000047,,,,,,,,,,,304.1181390999991,304.1309135000047,304.1309135000047,304.312148099998,304.35447979997844,306.1155893999967,None,1,,,,000016,001,2024-10-10_12h47.00.106,cpt_test,2024.2.2,60.01172629327892,2024-10-10 12h47.53.338103 -0600,
79,F,0,None,78,78,0,None,1,,,0,78,78,78,306.12855090000085,,,,,,,,,,,306.11590539998724,306.12855090000085,306.12855090000085,306.3097933999961,306.34276850000606,308.1137228999869,None,1,,,,000016,001,2024-10-10_12h47.00.106,cpt_test,2024.2.2,60.01172629327892,2024-10-10 12h47.53.338103 -0600,
80,K,0,None,79,79,0,None,1,,,0,79,79,79,308.126423299982,,,,,,,,,,,308.1140574000019,308.126423299982,308.126423299982,308.30815659998916,308.3410751000047,310.11189020000165,None,1,,,,000016,001,2024-10-10_12h47.00.106,cpt_test,2024.2.2,60.01172629327892,2024-10-10 12h47.53.338103 -0600,
81,O,0,None,80,80,0,None,1,,,0,80,80,80,310.1245963999827,,,,,,,,,,,310.11219809998875,310.1245963999827,310.1245963999827,310.30668710000464,310.33940899997833,312.11170859998674,None,1,,,,000016,001,2024-10-10_12h47.00.106,cpt_test,2024.2.2,60.01172629327892,2024-10-10 12h47.53.338103 -0600,
82,F,0,None,81,81,0,None,1,,,0,81,81,81,312.12615739999455,,,,,,,,,,,312.1121199000045,312.12615739999455,312.12615739999455,312.3124181999883,312.32472179998877,314.1085159999784,None,1,,,,000016,001,2024-10-10_12h47.00.106,cpt_test,2024.2.2,60.01172629327892,2024-10-10 12h47.53.338103 -0600,
83,F,0,None,82,82,0,None,1,,,0,82,82,82,314.1201121000049,,,,,,,,,,,314.10881889998564,314.1201121000049,314.1201121000049,314.3032551999786,314.31944719998864,316.10726520000026,None,1,,,,000016,001,2024-10-10_12h47.00.106,cpt_test,2024.2.2,60.01172629327892,2024-10-10 12h47.53.338103 -0600,
84,W,0,None,83,83,0,None,1,,,0,83,83,83,316.13851989997784,,,,,,,,,,,316.1075915999827,316.13851989997784,316.13851989997784,316.3017630999966,316.35127620000276,318.10526729997946,None,1,,,,000016,001,2024-10-10_12h47.00.106,cpt_test,2024.2.2,60.01172629327892,2024-10-10 12h47.53.338103 -0600,
85,X,1,x,84,84,0,x,1,0.34097469999687746,0.13046340001164936,0,84,84,84,318.1182104999898,,,,,,,,,,,318.1055706999905,318.1182104999898,318.1182104999898,318.30002229998354,318.33293869998306,320.1036637999932,x,1,0.34097469999687746,0.13046340001164936,,000016,001,2024-10-10_12h47.00.106,cpt_test,2024.2.2,60.01172629327892,2024-10-10 12h47.53.338103 -0600,
86,J,0,None,85,85,0,None,1,,,0,85,85,85,320.11656199998106,,,,,,,,,,,320.1039976000029,320.11656199998106,320.11656199998106,320.3150219999952,320.3312409000064,322.10232509998605,None,1,,,,000016,001,2024-10-10_12h47.00.106,cpt_test,2024.2.2,60.01172629327892,2024-10-10 12h47.53.338103 -0600,
87,N,0,None,86,86,0,None,1,,,0,86,86,86,322.11509629999637,,,,,,,,,,,322.10263739997754,322.11509629999637,322.11509629999637,322.3134174000006,322.3296724999964,324.10083849998773,None,1,,,,000016,001,2024-10-10_12h47.00.106,cpt_test,2024.2.2,60.01172629327892,2024-10-10 12h47.53.338103 -0600,
88,X,1,x,87,87,0,x,1,0.6214476000168361,0.1636339999968186,0,87,87,87,324.11355929999263,,,,,,,,,,,324.10117889998946,324.11355929999263,324.11355929999263,324.31171459998586,324.32791819999693,326.1169791999855,x,1,0.6214476000168361,0.1636339999968186,,000016,001,2024-10-10_12h47.00.106,cpt_test,2024.2.2,60.01172629327892,2024-10-10 12h47.53.338103 -0600,
89,T,0,None,88,88,0,None,1,,,0,88,88,88,326.13118629998644,,,,,,,,,,,326.1174004999921,326.13118629998644,326.13118629998644,326.30079479998676,326.330272399995,328.11369899997953,None,1,,,328.108196199988,000016,001,2024-10-10_12h47.00.106,cpt_test,2024.2.2,60.01172629327892,2024-10-10 12h47.53.338103 -0600,
90,I,0,None,89,89,0,None,1,,,0,89,89,89,328.12600449999445,,,,,,,,,,,328.1140025999921,328.12600449999445,328.12600449999445,328.3081421999959,328.34134709998034,330.1125583999965,None,1,,,,000016,001,2024-10-10_12h47.00.106,cpt_test,2024.2.2,60.01172629327892,2024-10-10 12h47.53.338103 -0600,
91,P,0,None,90,90,0,None,1,,,0,90,90,90,330.12525339997956,,,,,,,,,,,330.1128829999943,330.12525339997956,330.12525339997956,330.30680890000076,330.33959389998927,332.1105048999889,None,1,,,,000016,001,2024-10-10_12h47.00.106,cpt_test,2024.2.2,60.01172629327892,2024-10-10 12h47.53.338103 -0600,
92,X,1,x,91,91,0,x,1,0.34346329999971204,0.1576610000047367,0,91,91,91,332.1230643999879,,,,,,,,,,,332.1108109999914,332.1230643999879,332.1230643999879,332.3050822999794,332.3379944000044,334.1092546999862,x,1,0.34346329999971204,0.1576610000047367,,000016,001,2024-10-10_12h47.00.106,cpt_test,2024.2.2,60.01172629327892,2024-10-10 12h47.53.338103 -0600,
93,B,0,None,92,92,0,None,1,,,0,92,92,92,334.1216979000019,,,,,,,,,,,334.1096106999903,334.1216979000019,334.1216979000019,334.3032969000051,334.336584899982,336.10766879998846,None,1,,,,000016,001,2024-10-10_12h47.00.106,cpt_test,2024.2.2,60.01172629327892,2024-10-10 12h47.53.338103 -0600,
94,M,0,None,93,93,0,None,1,,,0,93,93,93,336.12097279998125,,,,,,,,,,,336.10800179999205,336.12097279998125,336.12097279998125,336.3028517999919,336.3347095999925,338.1059816000052,None,1,,,,000016,001,2024-10-10_12h47.00.106,cpt_test,2024.2.2,60.01172629327892,2024-10-10 12h47.53.338103 -0600,
95,B,0,None,94,94,0,None,1,,,0,94,94,94,338.11933269997826,,,,,,,,,,,338.106292499986,338.11933269997826,338.11933269997826,338.3001543999999,338.3330289000005,340.1053781999799,None,1,,,,000016,001,2024-10-10_12h47.00.106,cpt_test,2024.2.2,60.01172629327892,2024-10-10 12h47.53.338103 -0600,
96,I,0,None,95,95,0,None,1,,,0,95,95,95,340.11981079998077,,,,,,,,,,,340.1057840999856,340.11981079998077,340.11981079998077,340.31494839998777,340.3314878999954,342.10260759998346,None,1,,,,000016,001,2024-10-10_12h47.00.106,cpt_test,2024.2.2,60.01172629327892,2024-10-10 12h47.53.338103 -0600,
97,X,1,x,96,96,0,x,1,0.2784206000214908,0.1722390999784693,0,96,96,96,342.115661799995,,,,,,,,,,,342.1029091999808,342.115661799995,342.115661799995,342.3136492999911,342.3300012999971,344.10259490000317,x,1,0.2784206000214908,0.1722390999784693,,000016,001,2024-10-10_12h47.00.106,cpt_test,2024.2.2,60.01172629327892,2024-10-10 12h47.53.338103 -0600,
98,J,0,None,97,97,0,None,1,,,0,97,97,97,344.1170504000038,,,,,,,,,,,344.10300169998663,344.1170504000038,344.1170504000038,344.3012355999963,344.31799209999735,346.1170293999894,None,1,,,346.1099169999943,000016,001,2024-10-10_12h47.00.106,cpt_test,2024.2.2,60.01172629327892,2024-10-10 12h47.53.338103 -0600,
99,X,1,x,98,98,0,x,1,0.3817739999794867,0.1344132000231184,0,98,98,98,346.13173789999564,,,,,,,,,,,346.1174248000025,346.13173789999564,346.13173789999564,346.3011537999846,346.3351345999981,348.114244299999,x,1,0.3817739999794867,0.1344132000231184,348.1085308000038,000016,001,2024-10-10_12h47.00.106,cpt_test,2024.2.2,60.01172629327892,2024-10-10 12h47.53.338103 -0600,
100,U,0,None,99,99,0,None,1,,,0,99,99,99,348.12724949998665,,,,,,,,,,,348.11455949998344,348.12724949998665,348.12724949998665,348.30868960000225,348.34141739999177,350.11361119998037,None,1,,,,000016,001,2024-10-10_12h47.00.106,cpt_test,2024.2.2,60.01172629327892,2024-10-10 12h47.53.338103 -0600,
101,D,0,None,100,100,0,None,1,,,0,100,100,100,350.1281183999963,,,,,,,,,,,350.11399439998786,350.1281183999963,350.1281183999963,350.30831649998436,350.3399764999922,352.11098470000434,None,1,,,,000016,001,2024-10-10_12h47.00.106,cpt_test,2024.2.2,60.01172629327892,2024-10-10 12h47.53.338103 -0600,
102,X,1,x,101,101,0,x,1,0.3085332000046037,0.11189880000893027,0,101,101,101,352.12361879998934,,,,,,,,,,,352.11130140000023,352.12361879998934,352.12361879998934,352.3061963999935,352.32261689999723,354.10921419999795,x,1,0.3085332000046037,0.11189880000893027,,000016,001,2024-10-10_12h47.00.106,cpt_test,2024.2.2,60.01172629327892,2024-10-10 12h47.53.338103 -0600,
103,X,1,x,102,102,0,x,1,0.36159969997243024,0.08854080000310205,0,102,102,102,354.1203698999889,,,,,,,,,,,354.10953919999884,354.1203698999889,354.1203698999889,354.3071640999988,354.32827389999875,356.10801369999535,x,1,0.36159969997243024,0.08854080000310205,,000016,001,2024-10-10_12h47.00.106,cpt_test,2024.2.2,60.01172629327892,2024-10-10 12h47.53.338103 -0600,
104,N,0,None,103,103,0,None,1,,,0,103,103,103,356.1207805000013,,,,,,,,,,,356.10836640000343,356.1207805000013,356.1207805000013,356.30210679999436,356.3350466999982,358.1059846999997,None,1,,,,000016,001,2024-10-10_12h47.00.106,cpt_test,2024.2.2,60.01172629327892,2024-10-10 12h47.53.338103 -0600,
105,U,0,None,104,104,0,None,1,,,0,104,104,104,358.1188700000057,,,,,,,,,,,358.1063108999806,358.1188700000057,358.1188700000057,358.3003281999845,358.3333224999951,360.1054346000019,None,1,,,,000016,001,2024-10-10_12h47.00.106,cpt_test,2024.2.2,60.01172629327892,2024-10-10 12h47.53.338103 -0600,
106,T,0,None,105,105,0,None,1,,,0,105,105,105,360.1198037999857,,,,,,,,,,,360.10586829998647,360.1198037999857,360.1198037999857,360.3152427999885,360.3317509999906,362.1030464999785,None,1,,,,000016,001,2024-10-10_12h47.00.106,cpt_test,2024.2.2,60.01172629327892,2024-10-10 12h47.53.338103 -0600,
107,W,0,None,106,106,0,None,1,,,0,106,106,106,362.1163594999816,,,,,,,,,,,362.1033773999952,362.1163594999816,362.1163594999816,362.3140259000065,362.3300599999784,364.1010494999937,None,1,,,,000016,001,2024-10-10_12h47.00.106,cpt_test,2024.2.2,60.01172629327892,2024-10-10 12h47.53.338103 -0600,
108,N,0,None,107,107,0,None,1,,,0,107,107,107,364.1141771999828,,,,,,,,,,,364.10137530000065,364.1141771999828,364.1141771999828,364.3119514999853,364.328405999986,366.1160131999932,None,1,,,,000016,001,2024-10-10_12h47.00.106,cpt_test,2024.2.2,60.01172629327892,2024-10-10 12h47.53.338103 -0600,
109,R,0,None,108,108,0,None,1,,,0,108,108,108,366.1293907999934,,,,,,,,,,,366.11634049998247,366.1293907999934,366.1293907999934,366.3104779999994,366.3433013999893,368.11545879999176,None,1,,,,000016,001,2024-10-10_12h47.00.106,cpt_test,2024.2.2,60.01172629327892,2024-10-10 12h47.53.338103 -0600,
110,X,1,x,109,109,0,x,1,0.27287929999874905,0.10799979997682385,0,109,109,109,368.1301009999879,,,,,,,,,,,368.1158593999862,368.1301009999879,368.1301009999879,368.3168794999947,368.3333524999907,370.1136001999839,x,1,0.27287929999874905,0.10799979997682385,,000016,001,2024-10-10_12h47.00.106,cpt_test,2024.2.2,60.01172629327892,2024-10-10 12h47.53.338103 -0600,
111,A,0,None,110,110,0,None,1,,,0,110,110,110,370.1268391000049,,,,,,,,,,,370.1139968999778,370.1268391000049,370.1268391000049,370.3081983999873,370.3420069999993,372.1110395999858,None,1,,,,000016,001,2024-10-10_12h47.00.106,cpt_test,2024.2.2,60.01172629327892,2024-10-10 12h47.53.338103 -0600,
112,X,1,x,111,111,0,x,1,0.3747082999907434,0.1573999999964144,0,111,111,111,372.1241177000047,,,,,,,,,,,372.11135279998416,372.1241177000047,372.1241177000047,372.30557820000104,372.33834839999327,374.10957929998403,x,1,0.3747082999907434,0.1573999999964144,,000016,001,2024-10-10_12h47.00.106,cpt_test,2024.2.2,60.01172629327892,2024-10-10 12h47.53.338103 -0600,
113,G,0,None,112,112,0,None,1,,,0,112,112,112,374.1228031999781,,,,,,,,,,,374.1099164999905,374.1228031999781,374.1228031999781,374.32099979999475,374.34093569999095,376.1079979999922,None,1,,,,000016,001,2024-10-10_12h47.00.106,cpt_test,2024.2.2,60.01172629327892,2024-10-10 12h47.53.338103 -0600,
114,O,0,None,113,113,0,None,1,,,0,113,113,113,376.1208776999847,,,,,,,,,,,376.1083193999948,376.1208776999847,376.1208776999847,376.30233320000116,376.3360127999913,378.1061279999849,None,1,,,,000016,001,2024-10-10_12h47.00.106,cpt_test,2024.2.2,60.01172629327892,2024-10-10 12h47.53.338103 -0600,
115,U,0,None,114,114,0,None,1,,,0,114,114,114,378.1191913999792,,,,,,,,,,,378.10645099999965,378.1191913999792,378.1191913999792,378.3006017000007,378.3335068000015,380.1046035999898,None,1,,,,000016,001,2024-10-10_12h47.00.106,cpt_test,2024.2.2,60.01172629327892,2024-10-10 12h47.53.338103 -0600,
116,X,1,x,115,115,0,x,1,0.3549215999955777,0.13490559998899698,0,115,115,115,380.11766550000175,,,,,,,,,,,380.10492250000243,380.11766550000175,380.11766550000175,380.31554919999326,380.3317846999853,382.1031272999826,x,1,0.3549215999955777,0.13490559998899698,,000016,001,2024-10-10_12h47.00.106,cpt_test,2024.2.2,60.01172629327892,2024-10-10 12h47.53.338103 -0600,
117,X,1,x,116,116,0,x,1,0.3449283999798354,0.12412230001064017,0,116,116,116,382.11392509998404,,,,,,,,,,,382.10347859998,382.11392509998404,382.11392509998404,382.3135674999794,382.3135674999794,384.10147829999914,x,1,0.3449283999798354,0.12412230001064017,,000016,001,2024-10-10_12h47.00.106,cpt_test,2024.2.2,60.01172629327892,2024-10-10 12h47.53.338103 -0600,
118,C,0,None,117,117,0,None,1,,,0,117,117,117,384.11465959998895,,,,,,,,,,,384.1018538000062,384.11465959998895,384.11465959998895,384.3122758999816,384.3284618000034,386.1161174000008,None,1,,,,000016,001,2024-10-10_12h47.00.106,cpt_test,2024.2.2,60.01172629327892,2024-10-10 12h47.53.338103 -0600,
119,A,0,None,118,118,0,None,1,,,0,118,118,118,386.1285835999879,,,,,,,,,,,386.1164179999905,386.1285835999879,386.1285835999879,386.3106723999954,386.34361139999237,388.1148237999878,None,1,,,,000016,001,2024-10-10_12h47.00.106,cpt_test,2024.2.2,60.01172629327892,2024-10-10 12h47.53.338103 -0600,
120,X,1,x,119,119,0,x,1,0.3335415000037756,0.14427980000618845,0,119,119,119,388.1279466999986,,,,,,,,,,,388.11513359998935,388.1279466999986,388.1279466999986,388.3090316999878,388.3418654999987,390.1139026999881,x,1,0.3335415000037756,0.14427980000618845,,000016,001,2024-10-10_12h47.00.106,cpt_test,2024.2.2,60.01172629327892,2024-10-10 12h47.53.338103 -0600,
121,H,0,None,120,120,0,None,1,,,0,120,120,120,390.1318673999922,,,,,,,,,,,390.11448729998665,390.1318673999922,390.1318673999922,390.3076353999786,390.34507199999643,392.1114731999987,None,1,,,,000016,001,2024-10-10_12h47.00.106,cpt_test,2024.2.2,60.01172629327892,2024-10-10 12h47.53.338103 -0600,
122,M,0,None,121,121,0,None,1,,,0,121,121,121,392.12459189997753,,,,,,,,,,,392.11177560000215,392.12459189997753,392.12459189997753,392.3056323000055,392.33878229997936,394.11119709999184,None,1,,,,000016,001,2024-10-10_12h47.00.106,cpt_test,2024.2.2,60.01172629327892,2024-10-10 12h47.53.338103 -0600,
123,V,0,None,122,122,0,None,1,,,0,122,122,122,394.12561669998104,,,,,,,,,,,394.1115987999947,394.12561669998104,394.12561669998104,394.31267709998065,394.3290160000033,396.10833269997966,None,1,,,,000016,001,2024-10-10_12h47.00.106,cpt_test,2024.2.2,60.01172629327892,2024-10-10 12h47.53.338103 -0600,
124,K,0,None,123,123,0,None,1,,,0,123,123,123,396.1211086999974,,,,,,,,,,,396.1086693999823,396.1211086999974,396.1211086999974,396.30227439999,396.335293799988,398.106672599999,None,1,,,,000016,001,2024-10-10_12h47.00.106,cpt_test,2024.2.2,60.01172629327892,2024-10-10 12h47.53.338103 -0600,
125,G,0,None,124,124,0,None,1,,,0,124,124,124,398.1196272999805,,,,,,,,,,,398.1070252000063,398.1196272999805,398.1196272999805,398.3008803999983,398.3345965000044,400.10452709998935,None,1,,,,000016,001,2024-10-10_12h47.00.106,cpt_test,2024.2.2,60.01172629327892,2024-10-10 12h47.53.338103 -0600,
126,A,0,None,125,125,0,None,1,,,0,125,125,125,400.11775169998873,,,,,,,,,,,400.1048430999799,400.11775169998873,400.11775169998873,400.3164661999908,400.33304689999204,402.1031248999934,None,1,,,,000016,001,2024-10-10_12h47.00.106,cpt_test,2024.2.2,60.01172629327892,2024-10-10 12h47.53.338103 -0600,
127,X,1,x,126,126,0,x,1,0.32441929998458363,0.11570029999711551,0,126,126,126,402.1162024999794,,,,,,,,,,,402.1034487999859,402.1162024999794,402.1162024999794,402.3140743999975,402.33025649999036,404.1015151999891,x,1,0.32441929998458363,0.11570029999711551,,000016,001,2024-10-10_12h47.00.106,cpt_test,2024.2.2,60.01172629327892,2024-10-10 12h47.53.338103 -0600,
128,N,0,None,127,127,0,None,1,,,0,127,127,127,404.11510569998063,,,,,,,,,,,404.1018366999924,404.11510569998063,404.11510569998063,404.3123671999783,404.32872279998264,406.11656120000407,None,1,,,,000016,001,2024-10-10_12h47.00.106,cpt_test,2024.2.2,60.01172629327892,2024-10-10 12h47.53.338103 -0600,
129,Y,0,None,128,128,0,None,1,,,0,128,128,128,406.1298719999904,,,,,,,,,,,406.11687119997805,406.1298719999904,406.1298719999904,406.3106659000041,406.34368799999356,408.1151077999966,None,1,,,,000016,001,2024-10-10_12h47.00.106,cpt_test,2024.2.2,60.01172629327892,2024-10-10 12h47.53.338103 -0600,
130,W,0,None,129,129,0,None,1,,,0,129,129,129,408.1285276999988,,,,,,,,,,,408.1154722000065,408.1285276999988,408.1285276999988,408.3093333999859,408.3422077999858,410.11426659999415,None,1,,,,000016,001,2024-10-10_12h47.00.106,cpt_test,2024.2.2,60.01172629327892,2024-10-10 12h47.53.338103 -0600,
131,L,0,None,130,130,0,None,1,,,0,130,130,130,410.1286169999803,,,,,,,,,,,410.1146470999811,410.1286169999803,410.1286169999803,410.3155423999997,410.33193849999225,412.11270309999236,None,1,,,,000016,001,2024-10-10_12h47.00.106,cpt_test,2024.2.2,60.01172629327892,2024-10-10 12h47.53.338103 -0600,
132,F,0,None,131,131,0,None,1,,,0,131,131,131,412.12728679997963,,,,,,,,,,,412.11308759998064,412.12728679997963,412.12728679997963,412.3133700999897,412.32985320000444,414.1096367999853,None,1,,,,000016,001,2024-10-10_12h47.00.106,cpt_test,2024.2.2,60.01172629327892,2024-10-10 12h47.53.338103 -0600,
133,E,0,None,132,132,0,None,1,,,0,132,132,132,414.1226878000016,,,,,,,,,,,414.1099379999796,414.1226878000016,414.1226878000016,414.3042560000031,414.3371591999894,416.10794409998925,None,1,,,,000016,001,2024-10-10_12h47.00.106,cpt_test,2024.2.2,60.01172629327892,2024-10-10 12h47.53.338103 -0600,
134,L,0,None,133,133,0,None,1,,,0,133,133,133,416.1206649999949,,,,,,,,,,,416.10825429999386,416.1206649999949,416.1206649999949,416.30244889997994,416.3354978999996,418.1059466000006,None,1,,,,000016,001,2024-10-10_12h47.00.106,cpt_test,2024.2.2,60.01172629327892,2024-10-10 12h47.53.338103 -0600,
135,K,0,None,134,134,0,None,1,,,0,134,134,134,418.11765509998077,,,,,,,,,,,418.106132099987,418.11765509998077,418.11765509998077,418.3207781999954,418.33604009999544,420.10499510000227,None,1,,,,000016,001,2024-10-10_12h47.00.106,cpt_test,2024.2.2,60.01172629327892,2024-10-10 12h47.53.338103 -0600,
136,Q,0,None,135,135,0,None,1,,,0,135,135,135,420.1180692999915,,,,,,,,,,,420.10531650000485,420.1180692999915,420.1180692999915,420.315904099989,420.3323378999776,422.10317679998116,None,1,,,,000016,001,2024-10-10_12h47.00.106,cpt_test,2024.2.2,60.01172629327892,2024-10-10 12h47.53.338103 -0600,
137,X,1,x,136,136,0,x,1,0.28003890000400133,0.15827250000438653,0,136,136,136,422.1160438999941,,,,,,,,,,,422.10348550000344,422.1160438999941,422.1160438999941,422.306931900006,422.329327799991,424.10130419998313,x,1,0.28003890000400133,0.15827250000438653,,000016,001,2024-10-10_12h47.00.106,cpt_test,2024.2.2,60.01172629327892,2024-10-10 12h47.53.338103 -0600,
138,J,0,None,137,137,0,None,1,,,0,137,137,137,424.11545079998905,,,,,,,,,,,424.1016318000038,424.11545079998905,424.11545079998905,424.3011368000007,424.31560559998616,426.10119940000004,None,1,,,,000016,001,2024-10-10_12h47.00.106,cpt_test,2024.2.2,60.01172629327892,2024-10-10 12h47.53.338103 -0600,
139,X,1,x,138,138,0,x,1,0.36258749998523854,0.16450529999565333,0,138,138,138,426.11573409999255,,,,,,,,,,,426.10158539999975,426.11573409999255,426.11573409999255,426.3108766999794,426.3274587999913,428.11578299998655,x,1,0.36258749998523854,0.16450529999565333,,000016,001,2024-10-10_12h47.00.106,cpt_test,2024.2.2,60.01172629327892,2024-10-10 12h47.53.338103 -0600,
140,E,0,None,139,139,0,None,1,,,0,139,139,139,428.13037719999556,,,,,,,,,,,428.1162074999884,428.13037719999556,428.13037719999556,428.3092242999992,428.34238429999095,430.1148744999955,None,1,,,,000016,001,2024-10-10_12h47.00.106,cpt_test,2024.2.2,60.01172629327892,2024-10-10 12h47.53.338103 -0600,
141,T,0,None,140,140,0,None,1,,,0,140,140,140,430.1276322999911,,,,,,,,,,,430.11517809997895,430.1276322999911,430.1276322999911,430.30758510000305,430.3407109999971,432.1116575000051,None,1,,,,000016,001,2024-10-10_12h47.00.106,cpt_test,2024.2.2,60.01172629327892,2024-10-10 12h47.53.338103 -0600,
142,X,1,x,141,141,0,x,1,0.3568471999897156,0.1315179000084754,0,141,141,141,432.1248160999967,,,,,,,,,,,432.1119824000052,432.1248160999967,432.1248160999967,432.3059288999939,432.3392305999878,434.1109265999985,x,1,0.3568471999897156,0.1315179000084754,,000016,001,2024-10-10_12h47.00.106,cpt_test,2024.2.2,60.01172629327892,2024-10-10 12h47.53.338103 -0600,
143,Q,0,None,142,142,0,None,1,,,0,142,142,142,434.12426479998976,,,,,,,,,,,434.1112401999999,434.12426479998976,434.12426479998976,434.30451509999693,434.33750959997997,436.10835779999616,None,1,,,,000016,001,2024-10-10_12h47.00.106,cpt_test,2024.2.2,60.01172629327892,2024-10-10 12h47.53.338103 -0600,
144,V,0,None,143,143,0,None,1,,,0,143,143,143,436.12093629999436,,,,,,,,,,,436.1086720000021,436.12093629999436,436.12093629999436,436.30361370000173,436.32019440000295,438.10754719999386,None,1,,,438.1018323999888,000016,001,2024-10-10_12h47.00.106,cpt_test,2024.2.2,60.01172629327892,2024-10-10 12h47.53.338103 -0600,
145,Y,0,None,144,144,0,None,1,,,0,144,144,144,438.1200592999812,,,,,,,,,,,438.10785800000303,438.1200592999812,438.1200592999812,438.3010939999949,438.33403309999267,440.1062527000031,None,1,,,,000016,001,2024-10-10_12h47.00.106,cpt_test,2024.2.2,60.01172629327892,2024-10-10 12h47.53.338103 -0600,
146,O,0,None,145,145,0,None,1,,,0,145,145,145,440.12076759999036,,,,,,,,,,,440.1066469999787,440.12076759999036,440.12076759999036,440.30843859998276,440.3249066999997,442.1036312999786,None,1,,,,000016,001,2024-10-10_12h47.00.106,cpt_test,2024.2.2,60.01172629327892,2024-10-10 12h47.53.338103 -0600,
147,T,0,None,146,146,0,None,1,,,0,146,146,146,442.1167056999984,,,,,,,,,,,442.1039743000001,442.1167056999984,442.1167056999984,442.31544929998927,442.3319002999924,444.1015577999933,None,1,,,,000016,001,2024-10-10_12h47.00.106,cpt_test,2024.2.2,60.01172629327892,2024-10-10 12h47.53.338103 -0600,
148,X,1,x,147,147,0,x,1,0.4147410999867134,0.15852920000907034,0,147,147,147,444.1144193999935,,,,,,,,,,,444.10186870000325,444.1144193999935,444.1144193999935,444.3159037999867,444.3376316999784,446.1011932999827,x,1,0.4147410999867134,0.15852920000907034,,000016,001,2024-10-10_12h47.00.106,cpt_test,2024.2.2,60.01172629327892,2024-10-10 12h47.53.338103 -0600,
149,T,0,None,148,148,0,None,1,,,0,148,148,148,446.116294699983,,,,,,,,,,,446.1015903999796,446.116294699983,446.116294699983,446.3022238999838,446.3187573000032,448.11481279999134,None,1,,,448.10929589997977,000016,001,2024-10-10_12h47.00.106,cpt_test,2024.2.2,60.01172629327892,2024-10-10 12h47.53.338103 -0600,
150,S,0,None,149,149,0,None,1,,,0,149,149,149,448.1278032999835,,,,,,,,,,,448.1151140999864,448.1278032999835,448.1278032999835,448.3094194000005,448.3426574000041,450.11340820000623,None,1,,,,000016,001,2024-10-10_12h47.00.106,cpt_test,2024.2.2,60.01172629327892,2024-10-10 12h47.53.338103 -0600,
151,L,0,None,150,150,0,None,1,,,0,150,150,150,450.12587200000416,,,,,,,,,,,450.11370799998986,450.12587200000416,450.12587200000416,450.30772690000595,450.34072039998136,452.1129018999927,None,1,,,,000016,001,2024-10-10_12h47.00.106,cpt_test,2024.2.2,60.01172629327892,2024-10-10 12h47.53.338103 -0600,
152,V,0,None,151,151,0,None,1,,,0,151,151,151,452.1269202999829,,,,,,,,,,,452.1132798999897,452.1269202999829,452.1269202999829,452.3062178999826,452.33937609998975,454.110469599982,None,1,,,,000016,001,2024-10-10_12h47.00.106,cpt_test,2024.2.2,60.01172629327892,2024-10-10 12h47.53.338103 -0600,
153,C,0,None,152,152,0,None,1,,,0,152,152,152,454.12364730000263,,,,,,,,,,,454.1107886999962,454.12364730000263,454.12364730000263,454.3073610999854,454.32392369999434,456.11307160000433,None,1,,,,000016,001,2024-10-10_12h47.00.106,cpt_test,2024.2.2,60.01172629327892,2024-10-10 12h47.53.338103 -0600,
154,U,0,None,153,153,0,None,1,,,0,153,153,153,456.12578719999874,,,,,,,,,,,456.11342189999414,456.12578719999874,456.12578719999874,456.30318210000405,456.3356020000065,458.1069131999975,None,1,,,,000016,001,2024-10-10_12h47.00.106,cpt_test,2024.2.2,60.01172629327892,2024-10-10 12h47.53.338103 -0600,
155,X,1,x,154,154,0,x,1,0.36271889999625273,0.1434290999895893,0,154,154,154,458.12002040000516,,,,,,,,,,,458.1072363999847,458.12002040000516,458.12002040000516,458.30261839999,458.3189968999941,460.10497650000616,x,1,0.36271889999625273,0.1434290999895893,,000016,001,2024-10-10_12h47.00.106,cpt_test,2024.2.2,60.01172629327892,2024-10-10 12h47.53.338103 -0600,
156,X,1,x,155,155,0,x,1,0.3476125999877695,0.10568900001817383,0,155,155,155,460.11647979999543,,,,,,,,,,,460.1052969000011,460.11647979999543,460.11647979999543,460.31588449998526,460.31588449998526,462.1039402000024,x,1,0.3476125999877695,0.10568900001817383,,000016,001,2024-10-10_12h47.00.106,cpt_test,2024.2.2,60.01172629327892,2024-10-10 12h47.53.338103 -0600,
157,L,0,None,156,156,0,None,1,,,0,156,156,156,462.1170276000048,,,,,,,,,,,462.1042516999878,462.1170276000048,462.1170276000048,462.31476300000213,462.3309259999951,464.10412819997873,None,1,,,,000016,001,2024-10-10_12h47.00.106,cpt_test,2024.2.2,60.01172629327892,2024-10-10 12h47.53.338103 -0600,
158,W,0,None,157,157,0,None,1,,,0,157,157,157,464.1193677999836,,,,,,,,,,,464.1045974000008,464.1193677999836,464.1193677999836,464.3100065999897,464.32712849997915,466.1171081000066,None,1,,,466.1112984000065,000016,001,2024-10-10_12h47.00.106,cpt_test,2024.2.2,60.01172629327892,2024-10-10 12h47.53.338103 -0600,
159,A,0,None,158,158,0,None,1,,,0,158,158,158,466.1302771999908,,,,,,,,,,,466.11742439999944,466.1302771999908,466.1302771999908,466.3122013999964,466.34590919999755,468.1165202999837,None,1,,,,000016,001,2024-10-10_12h47.00.106,cpt_test,2024.2.2,60.01172629327892,2024-10-10 12h47.53.338103 -0600,
160,X,1,x,159,159,0,x,1,0.3908386999974027,0.07052269999985583,0,159,159,159,468.13109859998804,,,,,,,,,,,468.116904399998,468.13109859998804,468.13109859998804,468.300714699988,468.3346125999815,470.11479389999295,x,1,0.3908386999974027,0.07052269999985583,470.10772599998745,000016,001,2024-10-10_12h47.00.106,cpt_test,2024.2.2,60.01172629327892,2024-10-10 12h47.53.338103 -0600,
161,A,0,None,160,160,0,None,1,,,0,160,160,160,470.12941709998995,,,,,,,,,,,470.11519799998496,470.12941709998995,470.12941709998995,470.30805059999693,470.34204180000233,472.1118608999823,None,1,,,,000016,001,2024-10-10_12h47.00.106,cpt_test,2024.2.2,60.01172629327892,2024-10-10 12h47.53.338103 -0600,
162,M,0,None,161,161,0,None,1,,,0,161,161,161,472.1249942999857,,,,,,,,,,,472.11216439999407,472.1249942999857,472.1249942999857,472.3065185000014,472.3394662999781,474.1106105999788,None,1,,,,000016,001,2024-10-10_12h47.00.106,cpt_test,2024.2.2,60.01172629327892,2024-10-10 12h47.53.338103 -0600,
163,X,1,x,162,162,0,x,1,0.3543769000098109,0.11180799998692237,0,162,162,162,474.12374119999004,,,,,,,,,,,474.1109262999962,474.12374119999004,474.12374119999004,474.30488479998894,474.33759419998387,476.1086857999908,x,1,0.3543769000098109,0.11180799998692237,,000016,001,2024-10-10_12h47.00.106,cpt_test,2024.2.2,60.01172629327892,2024-10-10 12h47.53.338103 -0600,
164,X,1,x,163,163,0,x,1,0.2687883000180591,0.1186742999998387,0,163,163,163,476.12003049999475,,,,,,,,,,,476.10900539997965,476.12003049999475,476.12003049999475,476.3069132999808,476.32282539998414,478.1069685999828,x,1,0.2687883000180591,0.1186742999998387,,000016,001,2024-10-10_12h47.00.106,cpt_test,2024.2.2,60.01172629327892,2024-10-10 12h47.53.338103 -0600,
165,K,0,None,164,164,0,None,1,,,0,164,164,164,478.1194089000055,,,,,,,,,,,478.1072811000049,478.1194089000055,478.1194089000055,478.30134949999047,478.33447119998164,480.10537419997854,None,1,,,,000016,001,2024-10-10_12h47.00.106,cpt_test,2024.2.2,60.01172629327892,2024-10-10 12h47.53.338103 -0600,
166,X,1,x,165,165,0,x,1,0.3514533000125084,0.1250049999798648,0,165,165,165,480.1181360000046,,,,,,,,,,,480.10574229998747,480.1181360000046,480.1181360000046,480.2996928000066,480.3330991999828,482.10142530000303,x,1,0.3514533000125084,0.1250049999798648,482.09825869998895,000016,001,2024-10-10_12h47.00.106,cpt_test,2024.2.2,60.01172629327892,2024-10-10 12h47.53.338103 -0600,
167,M,0,None,166,166,0,None,1,,,0,166,166,166,482.11477909999667,,,,,,,,,,,482.10160789999645,482.11477909999667,482.11477909999667,482.31456840000465,482.31456840000465,484.10233540000627,None,1,,,,000016,001,2024-10-10_12h47.00.106,cpt_test,2024.2.2,60.01172629327892,2024-10-10 12h47.53.338103 -0600,
168,X,1,x,167,167,0,x,1,0.3612340000108816,0.12526239998987876,0,167,167,167,484.11559440000565,,,,,,,,,,,484.10263919999124,484.11559440000565,484.11559440000565,484.313265499979,484.3294287000026,486.1174037999881,x,1,0.3612340000108816,0.12526239998987876,,000016,001,2024-10-10_12h47.00.106,cpt_test,2024.2.2,60.01172629327892,2024-10-10 12h47.53.338103 -0600,
169,A,0,None,168,168,0,None,1,,,0,168,168,168,486.13033559999894,,,,,,,,,,,486.1177347000048,486.13033559999894,486.13033559999894,486.31169139998383,486.3446314999892,488.1156655999948,None,1,,,,000016,001,2024-10-10_12h47.00.106,cpt_test,2024.2.2,60.01172629327892,2024-10-10 12h47.53.338103 -0600,
170,X,1,x,169,169,0,x,1,0.28611620000447147,0.11780239999643527,0,169,169,169,488.1287534000003,,,,,,,,,,,488.1160177999991,488.1287534000003,488.1287534000003,488.3099843999953,488.3427649999794,490.1141163999855,x,1,0.28611620000447147,0.11780239999643527,,000016,001,2024-10-10_12h47.00.106,cpt_test,2024.2.2,60.01172629327892,2024-10-10 12h47.53.338103 -0600,
171,L,0,None,170,170,0,None,1,,,0,170,170,170,490.1269595999911,,,,,,,,,,,490.1144304999907,490.1269595999911,490.1269595999911,490.3081401999807,490.3414095999906,492.11483789997874,None,1,,,492.1078054999816,000016,001,2024-10-10_12h47.00.106,cpt_test,2024.2.2,60.01172629327892,2024-10-10 12h47.53.338103 -0600,
172,E,0,None,171,171,0,None,1,,,0,171,171,171,492.1296347999887,,,,,,,,,,,492.1152214999893,492.1296347999887,492.1296347999887,492.3065898999921,492.3396504999837,494.1104582999833,None,1,,,,000016,001,2024-10-10_12h47.00.106,cpt_test,2024.2.2,60.01172629327892,2024-10-10 12h47.53.338103 -0600,
173,T,0,None,172,172,0,None,1,,,0,172,172,172,494.12352669998654,,,,,,,,,,,494.11075880000135,494.12352669998654,494.12352669998654,494.3048596000008,494.33798979999847,496.1101003999938,None,1,,,,000016,001,2024-10-10_12h47.00.106,cpt_test,2024.2.2,60.01172629327892,2024-10-10 12h47.53.338103 -0600,
174,F,0,None,173,173,0,None,1,,,0,173,173,173,496.1244574000011,,,,,,,,,,,496.1104885999812,496.1244574000011,496.1244574000011,496.30331950000254,496.33617559997947,498.10728359999484,None,1,,,,000016,001,2024-10-10_12h47.00.106,cpt_test,2024.2.2,60.01172629327892,2024-10-10 12h47.53.338103 -0600,
175,M,0,None,174,174,0,None,1,,,0,174,174,174,498.12046799997916,,,,,,,,,,,498.107611799991,498.12046799997916,498.12046799997916,498.3023425999854,498.3363876999938,500.1052550000022,None,1,,,,000016,001,2024-10-10_12h47.00.106,cpt_test,2024.2.2,60.01172629327892,2024-10-10 12h47.53.338103 -0600,
176,Q,0,None,175,175,0,None,1,,,0,175,175,175,500.11841870000353,,,,,,,,,,,500.1055729999789,500.11841870000353,500.11841870000353,500.3001319000032,500.3330905000039,502.1039355999965,None,1,,,,000016,001,2024-10-10_12h47.00.106,cpt_test,2024.2.2,60.01172629327892,2024-10-10 12h47.53.338103 -0600,
177,M,0,None,176,176,0,None,1,,,0,176,176,176,502.11702979999245,,,,,,,,,,,502.10423529997934,502.11702979999245,502.11702979999245,502.3151607000036,502.3312673000037,504.10269840000547,None,1,,,,000016,001,2024-10-10_12h47.00.106,cpt_test,2024.2.2,60.01172629327892,2024-10-10 12h47.53.338103 -0600,
178,X,1,x,177,177,0,x,1,0.30554609998944215,0.10739770001964644,0,177,177,177,504.11594909999985,,,,,,,,,,,504.10303009999916,504.11594909999985,504.11594909999985,504.31325949999155,504.32966379998834,506.1174306999892,x,1,0.30554609998944215,0.10739770001964644,,000016,001,2024-10-10_12h47.00.106,cpt_test,2024.2.2,60.01172629327892,2024-10-10 12h47.53.338103 -0600,
179,V,0,None,178,178,0,None,1,,,0,178,178,178,506.1309204999998,,,,,,,,,,,506.11776979998103,506.1309204999998,506.1309204999998,506.31167529997765,506.3446471999923,508.1167962999898,None,1,,,,000016,001,2024-10-10_12h47.00.106,cpt_test,2024.2.2,60.01172629327892,2024-10-10 12h47.53.338103 -0600,
180,M,0,None,179,179,0,None,1,,,0,179,179,179,508.13123719999567,,,,,,,,,,,508.11717729998054,508.13123719999567,508.13123719999567,508.3126901999931,508.34315999998944,510.11433409998426,None,1,,,,000016,001,2024-10-10_12h47.00.106,cpt_test,2024.2.2,60.01172629327892,2024-10-10 12h47.53.338103 -0600,
181,P,0,None,180,180,0,None,1,,,0,180,180,180,510.12736749998294,,,,,,,,,,,510.11464439998963,510.12736749998294,510.12736749998294,510.30835380000644,510.34135719999904,512.1124940000009,None,1,,,,000016,001,2024-10-10_12h47.00.106,cpt_test,2024.2.2,60.01172629327892,2024-10-10 12h47.53.338103 -0600,
182,K,0,None,181,181,0,None,1,,,0,181,181,181,512.1242680999858,,,,,,,,,,,512.1128178999934,512.1242680999858,512.1242680999858,512.3068763999909,512.3230767000059,514.1105421999819,None,1,,,,000016,001,2024-10-10_12h47.00.106,cpt_test,2024.2.2,60.01172629327892,2024-10-10 12h47.53.338103 -0600,
183,V,0,None,182,182,0,None,1,,,0,182,182,182,514.1233282999892,,,,,,,,,,,514.1108484999859,514.1233282999892,514.1233282999892,514.3050753999851,514.3382082000026,516.1091809000063,None,1,,,,000016,001,2024-10-10_12h47.00.106,cpt_test,2024.2.2,60.01172629327892,2024-10-10 12h47.53.338103 -0600,
184,G,0,None,183,183,0,None,1,,,0,183,183,183,516.1223654999922,,,,,,,,,,,516.109481499996,516.1223654999922,516.1223654999922,516.3036250000005,516.3365027999971,518.1073015999864,None,1,,,,000016,001,2024-10-10_12h47.00.106,cpt_test,2024.2.2,60.01172629327892,2024-10-10 12h47.53.338103 -0600,
185,L,0,None,184,184,0,None,1,,,0,184,184,184,518.1201868999924,,,,,,,,,,,518.1076089999988,518.1201868999924,518.1201868999924,518.3017515999964,518.334979199979,520.1057816999964,None,1,,,,000016,001,2024-10-10_12h47.00.106,cpt_test,2024.2.2,60.01172629327892,2024-10-10 12h47.53.338103 -0600,
186,Q,0,None,185,185,0,None,1,,,0,185,185,185,520.1189348000044,,,,,,,,,,,520.106083199993,520.1189348000044,520.1189348000044,520.3001425999973,520.3331540999934,522.103899299982,None,1,,,,000016,001,2024-10-10_12h47.00.106,cpt_test,2024.2.2,60.01172629327892,2024-10-10 12h47.53.338103 -0600,
187,N,0,None,186,186,0,None,1,,,0,186,186,186,522.116851800005,,,,,,,,,,,522.1042129999842,522.116851800005,522.116851800005,522.3153441000031,522.3316475999891,524.1025734999857,None,1,,,,000016,001,2024-10-10_12h47.00.106,cpt_test,2024.2.2,60.01172629327892,2024-10-10 12h47.53.338103 -0600,
188,K,0,None,187,187,0,None,1,,,0,187,187,187,524.115075299982,,,,,,,,,,,524.102885899978,524.115075299982,524.115075299982,524.3135156999924,524.3300451999821,526.1008998999896,None,1,,,,000016,001,2024-10-10_12h47.00.106,cpt_test,2024.2.2,60.01172629327892,2024-10-10 12h47.53.338103 -0600,
189,C,0,None,188,188,0,None,1,,,0,188,188,188,526.1133953999961,,,,,,,,,,,526.101197299984,526.1133953999961,526.1133953999961,526.3119358999829,526.3281495999836,528.1158056999848,None,1,,,,000016,001,2024-10-10_12h47.00.106,cpt_test,2024.2.2,60.01172629327892,2024-10-10 12h47.53.338103 -0600,
190,Z,0,None,189,189,0,None,1,,,0,189,189,189,528.1288236999826,,,,,,,,,,,528.1161053999967,528.1288236999826,528.1288236999826,528.3102856999903,528.3431535999989,530.1146393999807,None,1,,,,000016,001,2024-10-10_12h47.00.106,cpt_test,2024.2.2,60.01172629327892,2024-10-10 12h47.53.338103 -0600,
191,I,0,None,190,190,0,None,1,,,0,190,190,190,530.1277113999822,,,,,,,,,,,530.1149742999987,530.1277113999822,530.1277113999822,530.3085504999908,530.3415419999801,532.1137025000062,None,1,,,,000016,001,2024-10-10_12h47.00.106,cpt_test,2024.2.2,60.01172629327892,2024-10-10 12h47.53.338103 -0600,
192,J,0,None,191,191,0,None,1,,,0,191,191,191,532.1280890000053,,,,,,,,,,,532.114084300003,532.1280890000053,532.1280890000053,532.3147370999795,532.3311338000058,534.1123574999801,None,1,,,,000016,001,2024-10-10_12h47.00.106,cpt_test,2024.2.2,60.01172629327892,2024-10-10 12h47.53.338103 -0600,
193,X,1,x,192,192,0,x,1,0.3307906000118237,0.1201007999770809,0,192,192,192,534.127631499985,,,,,,,,,,,534.1127516999841,534.127631499985,534.127631499985,534.3054154999845,534.3382222999935,536.1091761999996,x,1,0.3307906000118237,0.1201007999770809,,000016,001,2024-10-10_12h47.00.106,cpt_test,2024.2.2,60.01172629327892,2024-10-10 12h47.53.338103 -0600,
194,E,0,None,193,193,0,None,1,,,0,193,193,193,536.1223864000058,,,,,,,,,,,536.1095131000038,536.1223864000058,536.1223864000058,536.3038467000006,536.3367621999932,538.1075319999945,None,1,,,,000016,001,2024-10-10_12h47.00.106,cpt_test,2024.2.2,60.01172629327892,2024-10-10 12h47.53.338103 -0600,
195,X,1,x,194,194,0,x,1,0.3885995000018738,0.1536809999961406,0,194,194,194,538.1207815999805,,,,,,,,,,,538.1078288999852,538.1207815999805,538.1207815999805,538.3019600999833,538.3349818999995,540.1075362999982,x,1,0.3885995000018738,0.1536809999961406,540.1004577999993,000016,001,2024-10-10_12h47.00.106,cpt_test,2024.2.2,60.01172629327892,2024-10-10 12h47.53.338103 -0600,
196,X,1,x,195,195,0,x,1,0.3929395999875851,0.14754100001300685,0,195,195,195,540.1170098999864,,,,,,,,,,,540.1079351999797,540.1170098999864,540.1170098999864,540.3001242000028,540.3163679999998,542.1044190999819,x,1,0.3929395999875851,0.14754100001300685,,000016,001,2024-10-10_12h47.00.106,cpt_test,2024.2.2,60.01172629327892,2024-10-10 12h47.53.338103 -0600,
197,O,0,None,196,196,0,None,1,,,0,196,196,196,542.1175378999906,,,,,,,,,,,542.1047492999933,542.1175378999906,542.1175378999906,542.3155829999887,542.3316790999961,544.1027383999899,None,1,,,,000016,001,2024-10-10_12h47.00.106,cpt_test,2024.2.2,60.01172629327892,2024-10-10 12h47.53.338103 -0600,
198,X,1,x,197,197,0,x,1,0.37749080001958646,0.12568259998806752,0,197,197,197,544.1157686999941,,,,,,,,,,,544.103040099988,544.1157686999941,544.1157686999941,544.3138680999982,544.3300484999781,546.1010996999976,x,1,0.37749080001958646,0.12568259998806752,,000016,001,2024-10-10_12h47.00.106,cpt_test,2024.2.2,60.01172629327892,2024-10-10 12h47.53.338103 -0600,
199,T,0,None,198,198,0,None,1,,,0,198,198,198,546.1142220000038,,,,,,,,,,,546.1014334999782,546.1142220000038,546.1142220000038,546.3121879999817,546.3285535000032,548.1158955999999,None,1,,,,000016,001,2024-10-10_12h47.00.106,cpt_test,2024.2.2,60.01172629327892,2024-10-10 12h47.53.338103 -0600,
200,X,1,x,199,199,0,x,1,0.3562259000027552,0.12946090000332333,0,199,199,199,548.1287460000021,,,,,,,,,,,548.1162580999953,548.1287460000021,548.1287460000021,548.3105272999965,548.3434586999938,550.1145094999811,x,1,0.3562259000027552,0.12946090000332333,,000016,001,2024-10-10_12h47.00.106,cpt_test,2024.2.2,60.01172629327892,2024-10-10 12h47.53.338103 -0600,
201,L,0,None,200,200,0,None,1,,,0,200,200,200,550.1274825999863,,,,,,,,,,,550.1148255000007,550.1274825999863,550.1274825999863,550.3086638999812,550.3419190999994,552.1128889999818,None,1,,,,000016,001,2024-10-10_12h47.00.106,cpt_test,2024.2.2,60.01172629327892,2024-10-10 12h47.53.338103 -0600,
