Number,letra,target,correctas,thisN,thisTrialN,thisRepN,respuesta.keys,respuesta.corr,respuesta.rt,respuesta.duration,trials.thisRepN,trials.thisTrialN,trials.thisN,trials.thisIndex,thisRow.t,notes,Ojos_abiertos.started,Abiertos.started,Ojos_abiertos.stopped,Ojos_cerrados.started,Cerrados.started,alert.started,Cerrados.stopped,alert.stopped,Ojos_cerrados.stopped,Test.started,prueba.started,respuesta.started,text.started,prueba.stopped,Test.stopped,trials.respuesta.keys,trials.respuesta.corr,trials.respuesta.rt,trials.respuesta.duration,text.stopped,participant,session,date,expName,psychopyVersion,frameRate,expStart,
,,,,,,,,,,,,,,,,,0.009360199997900054,0.028460900008212775,90.0129709999892,,,,,,,,,,,,,,,,,,000012,001,2024-10-09_13h27.02.247,cpt_test,2024.2.2,60.098826514216384,2024-10-09 13h30.40.328627 -0600,
,,,,,,,,,,,,,,,,,,,,90.02462380001089,90.03345560000162,150.01007716666598,150.0434796999907,150.3362242000003,150.11389280000003,,,,,,,,,,,,000012,001,2024-10-09_13h27.02.247,cpt_test,2024.2.2,60.098826514216384,2024-10-09 13h30.40.328627 -0600,
1,A,0,None,0,0,0,None,1,,,0,0,0,0,150.3362242000003,,,,,,,,,,,150.14490189999924,150.3362242000003,150.3362242000003,150.34795049999957,150.54312799999025,152.11222109998926,None,1,,,,000012,001,2024-10-09_13h27.02.247,cpt_test,2024.2.2,60.098826514216384,2024-10-09 13h30.40.328627 -0600,
2,R,0,None,1,1,0,None,1,,,0,1,1,1,152.13126339999144,,,,,,,,,,,152.11242160000256,152.13126339999144,152.13126339999144,152.30891990000964,152.34163239999907,154.1099702999927,None,1,,,,000012,001,2024-10-09_13h27.02.247,cpt_test,2024.2.2,60.098826514216384,2024-10-09 13h30.40.328627 -0600,
3,L,0,None,2,2,0,None,1,,,0,2,2,2,154.12857030000305,,,,,,,,,,,154.11014350000187,154.12857030000305,154.12857030000305,154.3070921000035,154.3400440000114,156.1083481000096,None,1,,,,000012,001,2024-10-09_13h27.02.247,cpt_test,2024.2.2,60.098826514216384,2024-10-09 13h30.40.328627 -0600,
4,X,1,x,3,3,0,None,0,,,0,3,3,3,156.12461639998946,,,,,,,,,,,156.10851510000066,156.12461639998946,156.12461639998946,156.30527499999152,156.3384905999992,158.1066245000111,None,0,,,,000012,001,2024-10-09_13h27.02.247,cpt_test,2024.2.2,60.098826514216384,2024-10-09 13h30.40.328627 -0600,
5,O,0,None,4,4,0,None,1,,,0,4,4,4,158.1233549999888,,,,,,,,,,,158.10681160000968,158.1233549999888,158.1233549999888,158.30362590000732,158.33691800001543,160.1049953000038,None,1,,,,000012,001,2024-10-09_13h27.02.247,cpt_test,2024.2.2,60.098826514216384,2024-10-09 13h30.40.328627 -0600,
6,G,0,None,5,5,0,None,1,,,0,5,5,5,160.12195500000962,,,,,,,,,,,160.1051918999874,160.12195500000962,160.12195500000962,160.302173700009,160.33514360000845,162.1029481999867,None,1,,,,000012,001,2024-10-09_13h27.02.247,cpt_test,2024.2.2,60.098826514216384,2024-10-09 13h30.40.328627 -0600,
7,P,0,None,6,6,0,None,1,,,0,6,6,6,162.11909779999405,,,,,,,,,,,162.10310490001575,162.11909779999405,162.11909779999405,162.3002337999933,162.3336677000043,164.1015427999955,None,1,,,,000012,001,2024-10-09_13h27.02.247,cpt_test,2024.2.2,60.098826514216384,2024-10-09 13h30.40.328627 -0600,
8,X,1,x,7,7,0,x,1,0.5695571000105701,0.19602919998578727,0,7,7,7,164.11571990000084,,,,,,,,,,,164.1016978000116,164.11571990000084,164.11571990000084,164.31511349999346,164.31511349999346,166.11659640001017,x,1,0.5695571000105701,0.19602919998578727,,000012,001,2024-10-09_13h27.02.247,cpt_test,2024.2.2,60.098826514216384,2024-10-09 13h30.40.328627 -0600,
9,X,1,x,8,8,0,x,1,0.7640380000229925,0.2363127999997232,0,8,8,8,166.1308136000007,,,,,,,,,,,166.11676569998963,166.1308136000007,166.1308136000007,166.31353200000012,166.33002980001038,168.1155820999993,x,1,0.7640380000229925,0.2363127999997232,,000012,001,2024-10-09_13h27.02.247,cpt_test,2024.2.2,60.098826514216384,2024-10-09 13h30.40.328627 -0600,
10,Z,0,None,9,9,0,None,1,,,0,9,9,9,168.13286290000542,,,,,,,,,,,168.11579539999366,168.13286290000542,168.13286290000542,168.3121528000047,168.34527510000044,170.11351970001124,None,1,,,,000012,001,2024-10-09_13h27.02.247,cpt_test,2024.2.2,60.098826514216384,2024-10-09 13h30.40.328627 -0600,
11,I,0,None,10,10,0,None,1,,,0,10,10,10,170.13063490000786,,,,,,,,,,,170.11370600000373,170.13063490000786,170.13063490000786,170.31056509999325,170.34383369999705,172.1121162000054,None,1,,,,000012,001,2024-10-09_13h27.02.247,cpt_test,2024.2.2,60.098826514216384,2024-10-09 13h30.40.328627 -0600,
12,D,0,None,11,11,0,None,1,,,0,11,11,11,172.13181789999362,,,,,,,,,,,172.11232000001473,172.13181789999362,172.13181789999362,172.3090716000006,172.34188670001458,174.11015809999662,None,1,,,,000012,001,2024-10-09_13h27.02.247,cpt_test,2024.2.2,60.098826514216384,2024-10-09 13h30.40.328627 -0600,
13,X,1,x,12,12,0,x,1,0.5726261000090744,0.2283029000100214,0,12,12,12,174.12406689999625,,,,,,,,,,,174.11032989999512,174.12406689999625,174.12406689999625,174.30722980000428,174.32370740000624,176.10819450000417,x,1,0.5726261000090744,0.2283029000100214,,000012,001,2024-10-09_13h27.02.247,cpt_test,2024.2.2,60.098826514216384,2024-10-09 13h30.40.328627 -0600,
14,Y,0,None,13,13,0,None,1,,,0,13,13,13,176.12616799998796,,,,,,,,,,,176.10834929998964,176.12616799998796,176.12616799998796,176.30574760001036,176.33865650001098,178.1064941000077,None,1,,,,000012,001,2024-10-09_13h27.02.247,cpt_test,2024.2.2,60.098826514216384,2024-10-09 13h30.40.328627 -0600,
15,X,1,x,14,14,0,x,1,0.4338100999884773,0.19245960001717322,0,14,14,14,178.12071720001404,,,,,,,,,,,178.10667119998834,178.12071720001404,178.12071720001404,178.30412750001415,178.3201270000136,180.1049830999982,x,1,0.4338100999884773,0.19245960001717322,,000012,001,2024-10-09_13h27.02.247,cpt_test,2024.2.2,60.098826514216384,2024-10-09 13h30.40.328627 -0600,
16,X,1,x,15,15,0,x,1,0.4147116999956779,0.2294040999840945,0,15,15,15,180.11923939999542,,,,,,,,,,,180.1051632000017,180.11923939999542,180.11923939999542,180.30238360000658,180.31874300001073,182.1040028000134,x,1,0.4147116999956779,0.2294040999840945,,000012,001,2024-10-09_13h27.02.247,cpt_test,2024.2.2,60.098826514216384,2024-10-09 13h30.40.328627 -0600,
17,A,0,None,16,16,0,None,1,,,0,16,16,16,182.11763600000995,,,,,,,,,,,182.10421320001478,182.11763600000995,182.11763600000995,182.3008317000058,182.31709970001248,184.1027868000092,None,1,,,,000012,001,2024-10-09_13h27.02.247,cpt_test,2024.2.2,60.098826514216384,2024-10-09 13h30.40.328627 -0600,
18,J,0,None,17,17,0,None,1,,,0,17,17,17,184.12179169998853,,,,,,,,,,,184.10300559998723,184.12179169998853,184.12179169998853,184.31580129999202,184.3320253000129,186.11721009999746,None,1,,,,000012,001,2024-10-09_13h27.02.247,cpt_test,2024.2.2,60.098826514216384,2024-10-09 13h30.40.328627 -0600,
19,G,0,None,18,18,0,None,1,,,0,18,18,18,186.13085009998758,,,,,,,,,,,186.11740369998734,186.13085009998758,186.13085009998758,186.31412460000138,186.33040050001,188.11575709999306,None,1,,,,000012,001,2024-10-09_13h27.02.247,cpt_test,2024.2.2,60.098826514216384,2024-10-09 13h30.40.328627 -0600,
20,X,1,x,19,19,0,x,1,0.35960359999444336,0.22769239998888224,0,19,19,19,188.12924330000533,,,,,,,,,,,188.11595790000865,188.12924330000533,188.12924330000533,188.31219719999353,188.3288515000022,190.1138850999996,x,1,0.35960359999444336,0.22769239998888224,,000012,001,2024-10-09_13h27.02.247,cpt_test,2024.2.2,60.098826514216384,2024-10-09 13h30.40.328627 -0600,
21,T,0,None,20,20,0,None,1,,,0,20,20,20,190.13303200001246,,,,,,,,,,,190.11409769998863,190.13303200001246,190.13303200001246,190.31075730000157,190.34409420000156,192.11186870001256,None,1,,,,000012,001,2024-10-09_13h27.02.247,cpt_test,2024.2.2,60.098826514216384,2024-10-09 13h30.40.328627 -0600,
22,S,0,None,21,21,0,None,1,,,0,21,21,21,192.13028020001366,,,,,,,,,,,192.11204279999947,192.13028020001366,192.13028020001366,192.30912009999156,192.34216180001386,194.110614300007,None,1,,,,000012,001,2024-10-09_13h27.02.247,cpt_test,2024.2.2,60.098826514216384,2024-10-09 13h30.40.328627 -0600,
23,X,1,x,22,22,0,x,1,0.35879600001499057,0.21865160000743344,0,22,22,22,194.12439800001448,,,,,,,,,,,194.1108094000083,194.12439800001448,194.12439800001448,194.30733340000734,194.3238934999972,196.10951929999283,x,1,0.35879600001499057,0.21865160000743344,,000012,001,2024-10-09_13h27.02.247,cpt_test,2024.2.2,60.098826514216384,2024-10-09 13h30.40.328627 -0600,
24,S,0,None,23,23,0,None,1,,,0,23,23,23,196.1227319999889,,,,,,,,,,,196.10978600001545,196.1227319999889,196.1227319999889,196.3059084000124,196.3222051000048,198.10748969999258,None,1,,,,000012,001,2024-10-09_13h27.02.247,cpt_test,2024.2.2,60.098826514216384,2024-10-09 13h30.40.328627 -0600,
25,G,0,None,24,24,0,None,1,,,0,24,24,24,198.12090499998885,,,,,,,,,,,198.10769720000098,198.12090499998885,198.12090499998885,198.30434100001003,198.32062670000596,200.1054090000107,None,1,,,,000012,001,2024-10-09_13h27.02.247,cpt_test,2024.2.2,60.098826514216384,2024-10-09 13h30.40.328627 -0600,
26,O,0,None,25,25,0,None,1,,,0,25,25,25,200.11917409999296,,,,,,,,,,,200.10560010001063,200.11917409999296,200.11917409999296,200.30260699999053,200.31887570000254,202.10404219999327,None,1,,,,000012,001,2024-10-09_13h27.02.247,cpt_test,2024.2.2,60.098826514216384,2024-10-09 13h30.40.328627 -0600,
27,P,0,None,26,26,0,None,1,,,0,26,26,26,202.11770299999625,,,,,,,,,,,202.1042429000081,202.11770299999625,202.11770299999625,202.30090319999726,202.317223799997,204.10248239999055,None,1,,,,000012,001,2024-10-09_13h27.02.247,cpt_test,2024.2.2,60.098826514216384,2024-10-09 13h30.40.328627 -0600,
28,Z,0,None,27,27,0,None,1,,,0,27,27,27,204.1160751999996,,,,,,,,,,,204.10268430001452,204.1160751999996,204.1160751999996,204.31569129999843,204.31569129999843,206.1008528000093,None,1,,,,000012,001,2024-10-09_13h27.02.247,cpt_test,2024.2.2,60.098826514216384,2024-10-09 13h30.40.328627 -0600,
29,X,1,x,28,28,0,x,1,0.42042370000854135,0.2707454999908805,0,28,28,28,206.11415579999448,,,,,,,,,,,206.10105500000645,206.11415579999448,206.11415579999448,206.3139061999973,206.3139061999973,208.1160809000139,x,1,0.42042370000854135,0.2707454999908805,,000012,001,2024-10-09_13h27.02.247,cpt_test,2024.2.2,60.098826514216384,2024-10-09 13h30.40.328627 -0600,
30,I,0,None,29,29,0,None,1,,,0,29,29,29,208.12911959999474,,,,,,,,,,,208.11629199999152,208.12911959999474,208.12911959999474,208.31236189999618,208.32904330000747,210.11409479999566,None,1,,,,000012,001,2024-10-09_13h27.02.247,cpt_test,2024.2.2,60.098826514216384,2024-10-09 13h30.40.328627 -0600,
31,F,0,None,30,30,0,None,1,,,0,30,30,30,210.13264240001445,,,,,,,,,,,210.11428650000016,210.13264240001445,210.13264240001445,210.31090189999668,210.34388890000992,212.11214690000634,None,1,,,,000012,001,2024-10-09_13h27.02.247,cpt_test,2024.2.2,60.098826514216384,2024-10-09 13h30.40.328627 -0600,
32,M,0,None,31,31,0,None,1,,,0,31,31,31,212.13141299999552,,,,,,,,,,,212.11232700000983,212.13141299999552,212.13141299999552,212.3094587000087,212.34220740001183,214.1114821000083,None,1,,,,000012,001,2024-10-09_13h27.02.247,cpt_test,2024.2.2,60.098826514216384,2024-10-09 13h30.40.328627 -0600,
33,T,0,None,32,32,0,None,1,,,0,32,32,32,214.12454690001323,,,,,,,,,,,214.11171659998945,214.12454690001323,214.12454690001323,214.30758930000593,214.32413140000426,216.10880469999393,None,1,,,,000012,001,2024-10-09_13h27.02.247,cpt_test,2024.2.2,60.098826514216384,2024-10-09 13h30.40.328627 -0600,
34,A,0,None,33,33,0,None,1,,,0,33,33,33,216.1226394000114,,,,,,,,,,,216.10898749998887,216.1226394000114,216.1226394000114,216.30610149999848,216.32244069999433,218.1073907999962,None,1,,,,000012,001,2024-10-09_13h27.02.247,cpt_test,2024.2.2,60.098826514216384,2024-10-09 13h30.40.328627 -0600,
35,E,0,None,34,34,0,None,1,,,0,34,34,34,218.12542279998888,,,,,,,,,,,218.10758760001045,218.12542279998888,218.12542279998888,218.30429800000275,218.33759499998996,220.10598059999757,None,1,,,,000012,001,2024-10-09_13h27.02.247,cpt_test,2024.2.2,60.098826514216384,2024-10-09 13h30.40.328627 -0600,
36,X,1,x,35,35,0,x,1,0.4350030999921728,0.22459530000924133,0,35,35,35,220.11942189998808,,,,,,,,,,,220.10617409998667,220.11942189998808,220.11942189998808,220.30278190001263,220.31899810000323,222.10367539999424,x,1,0.4350030999921728,0.22459530000924133,,000012,001,2024-10-09_13h27.02.247,cpt_test,2024.2.2,60.098826514216384,2024-10-09 13h30.40.328627 -0600,
37,A,0,None,36,36,0,None,1,,,0,36,36,36,222.1178643000021,,,,,,,,,,,222.10384170000907,222.1178643000021,222.1178643000021,222.30088719999185,222.31731199999922,224.10240420000628,None,1,,,,000012,001,2024-10-09_13h27.02.247,cpt_test,2024.2.2,60.098826514216384,2024-10-09 13h30.40.328627 -0600,
38,S,0,None,37,37,0,None,1,,,0,37,37,37,224.11592509999173,,,,,,,,,,,224.1025818999915,224.11592509999173,224.11592509999173,224.3158657999884,224.3158657999884,226.11701690001064,None,1,,,,000012,001,2024-10-09_13h27.02.247,cpt_test,2024.2.2,60.098826514216384,2024-10-09 13h30.40.328627 -0600,
39,U,0,None,38,38,0,None,1,,,0,38,38,38,226.135295199987,,,,,,,,,,,226.11717400001362,226.135295199987,226.135295199987,226.31446439999854,226.34733320001396,228.11598579998827,None,1,,,,000012,001,2024-10-09_13h27.02.247,cpt_test,2024.2.2,60.098826514216384,2024-10-09 13h30.40.328627 -0600,
40,U,0,None,39,39,0,None,1,,,0,39,39,39,228.12977540001157,,,,,,,,,,,228.11618459998863,228.12977540001157,228.12977540001157,228.3128410000063,228.32910780000384,230.1138656999974,None,1,,,,000012,001,2024-10-09_13h27.02.247,cpt_test,2024.2.2,60.098826514216384,2024-10-09 13h30.40.328627 -0600,
41,Q,0,None,40,40,0,None,1,,,0,40,40,40,230.13350160000846,,,,,,,,,,,230.11403850000352,230.13350160000846,230.13350160000846,230.31119199999375,230.34422649999033,232.11221870000008,None,1,,,,000012,001,2024-10-09_13h27.02.247,cpt_test,2024.2.2,60.098826514216384,2024-10-09 13h30.40.328627 -0600,
42,E,0,None,41,41,0,None,1,,,0,41,41,41,232.1260168000008,,,,,,,,,,,232.11239439999918,232.1260168000008,232.1260168000008,232.3095755999966,232.32597330000135,234.11125640000682,None,1,,,,000012,001,2024-10-09_13h27.02.247,cpt_test,2024.2.2,60.098826514216384,2024-10-09 13h30.40.328627 -0600,
43,B,0,None,42,42,0,None,1,,,0,42,42,42,234.13213909999467,,,,,,,,,,,234.11146819998976,234.13213909999467,234.13213909999467,234.30797449999955,234.3407637999917,236.10963029999402,None,1,,,,000012,001,2024-10-09_13h27.02.247,cpt_test,2024.2.2,60.098826514216384,2024-10-09 13h30.40.328627 -0600,
44,O,0,None,43,43,0,None,1,,,0,43,43,43,236.12321819999488,,,,,,,,,,,236.1098280000151,236.12321819999488,236.12321819999488,236.3060548999929,236.32237599999644,238.1081960000156,None,1,,,,000012,001,2024-10-09_13h27.02.247,cpt_test,2024.2.2,60.098826514216384,2024-10-09 13h30.40.328627 -0600,
45,E,0,None,44,44,0,None,1,,,0,44,44,44,238.121284199995,,,,,,,,,,,238.10840329999337,238.121284199995,238.121284199995,238.30452020000666,238.32091050001327,240.10706939999363,None,1,,,,000012,001,2024-10-09_13h27.02.247,cpt_test,2024.2.2,60.098826514216384,2024-10-09 13h30.40.328627 -0600,
46,F,0,None,45,45,0,None,1,,,0,45,45,45,240.11982789999456,,,,,,,,,,,240.10731900000246,240.11982789999456,240.11982789999456,240.302683899994,240.31926729998668,242.10479829998803,None,1,,,,000012,001,2024-10-09_13h27.02.247,cpt_test,2024.2.2,60.098826514216384,2024-10-09 13h30.40.328627 -0600,
47,V,0,None,46,46,0,None,1,,,0,46,46,46,242.12280539999483,,,,,,,,,,,242.10500800001319,242.12280539999483,242.12280539999483,242.30136189999757,242.33409930000198,244.103369199991,None,1,,,,000012,001,2024-10-09_13h27.02.247,cpt_test,2024.2.2,60.098826514216384,2024-10-09 13h30.40.328627 -0600,
48,X,1,x,47,47,0,x,1,0.359313100023428,0.22348439999041148,0,47,47,47,244.1164216999896,,,,,,,,,,,244.10359750001226,244.1164216999896,244.1164216999896,244.299560799991,244.31579039999633,246.11657710000873,x,1,0.359313100023428,0.22348439999041148,246.11397380000562,000012,001,2024-10-09_13h27.02.247,cpt_test,2024.2.2,60.098826514216384,2024-10-09 13h30.40.328627 -0600,
49,X,1,x,48,48,0,x,1,0.5001433999859728,0.23794950000592507,0,48,48,48,246.1312789999938,,,,,,,,,,,246.11673330000485,246.1312789999938,246.1312789999938,246.31485349999275,246.33095120001235,248.11682429999928,x,1,0.5001433999859728,0.23794950000592507,,000012,001,2024-10-09_13h27.02.247,cpt_test,2024.2.2,60.098826514216384,2024-10-09 13h30.40.328627 -0600,
50,C,0,None,49,49,0,None,1,,,0,49,49,49,248.13673160001053,,,,,,,,,,,248.11704589999863,248.13673160001053,248.13673160001053,248.31290720001562,248.34594160001143,250.11480839998694,None,1,,,,000012,001,2024-10-09_13h27.02.247,cpt_test,2024.2.2,60.098826514216384,2024-10-09 13h30.40.328627 -0600,
51,M,0,None,50,50,0,None,1,,,0,50,50,50,250.12802830000874,,,,,,,,,,,250.11500729998806,250.12802830000874,250.12802830000874,250.31135120001272,250.32771040001535,252.11279790001572,None,1,,,,000012,001,2024-10-09_13h27.02.247,cpt_test,2024.2.2,60.098826514216384,2024-10-09 13h30.40.328627 -0600,
52,D,0,None,51,51,0,None,1,,,0,51,51,51,252.12661490001483,,,,,,,,,,,252.11299349999172,252.12661490001483,252.12661490001483,252.3097596000007,252.3256212999986,254.1113874000148,None,1,,,,000012,001,2024-10-09_13h27.02.247,cpt_test,2024.2.2,60.098826514216384,2024-10-09 13h30.40.328627 -0600,
53,X,1,x,52,52,0,x,1,0.658477099990705,0.22829329999512993,0,52,52,52,254.1249026999867,,,,,,,,,,,254.1116042000067,254.1249026999867,254.1249026999867,254.30804490001174,254.32430030000978,256.10965510000824,x,1,0.658477099990705,0.22829329999512993,,000012,001,2024-10-09_13h27.02.247,cpt_test,2024.2.2,60.098826514216384,2024-10-09 13h30.40.328627 -0600,
54,K,0,None,53,53,0,None,1,,,0,53,53,53,256.129514500004,,,,,,,,,,,256.10985690000234,256.129514500004,256.129514500004,256.30622729999595,256.33952589999535,258.10757749999175,None,1,,,,000012,001,2024-10-09_13h27.02.247,cpt_test,2024.2.2,60.098826514216384,2024-10-09 13h30.40.328627 -0600,
55,X,1,x,54,54,0,x,1,0.634488199983025,0.22014720001607202,0,54,54,54,258.12144879999687,,,,,,,,,,,258.1077607999905,258.12144879999687,258.12144879999687,258.30494319999707,258.32106990000466,260.1071041999967,x,1,0.634488199983025,0.22014720001607202,,000012,001,2024-10-09_13h27.02.247,cpt_test,2024.2.2,60.098826514216384,2024-10-09 13h30.40.328627 -0600,
56,N,0,None,55,55,0,None,1,,,0,55,55,55,260.1288821999915,,,,,,,,,,,260.10733480000636,260.1288821999915,260.1288821999915,260.3031977000064,260.3359796000004,262.1044508999912,None,1,,,,000012,001,2024-10-09_13h27.02.247,cpt_test,2024.2.2,60.098826514216384,2024-10-09 13h30.40.328627 -0600,
57,M,0,None,56,56,0,None,1,,,0,56,56,56,262.11840490001487,,,,,,,,,,,262.10463240000536,262.11840490001487,262.11840490001487,262.301320700004,262.3178315999976,264.1023808000027,None,1,,,,000012,001,2024-10-09_13h27.02.247,cpt_test,2024.2.2,60.098826514216384,2024-10-09 13h30.40.328627 -0600,
58,X,1,x,57,57,0,x,1,0.561919100000523,0.22807740001007915,0,57,57,57,264.11672270001145,,,,,,,,,,,264.1025695000135,264.11672270001145,264.11672270001145,264.31622290000087,264.31622290000087,266.10163479999756,x,1,0.561919100000523,0.22807740001007915,,000012,001,2024-10-09_13h27.02.247,cpt_test,2024.2.2,60.098826514216384,2024-10-09 13h30.40.328627 -0600,
59,F,0,None,58,58,0,None,1,,,0,58,58,58,266.11495250000735,,,,,,,,,,,266.1018424000067,266.11495250000735,266.11495250000735,266.3146207999962,266.3146207999962,268.11659930000314,None,1,,,,000012,001,2024-10-09_13h27.02.247,cpt_test,2024.2.2,60.098826514216384,2024-10-09 13h30.40.328627 -0600,
60,A,0,None,59,59,0,None,1,,,0,59,59,59,268.1297759000154,,,,,,,,,,,268.1168039999902,268.1297759000154,268.1297759000154,268.3130577999982,268.329593500006,270.11492900000303,None,1,,,,000012,001,2024-10-09_13h27.02.247,cpt_test,2024.2.2,60.098826514216384,2024-10-09 13h30.40.328627 -0600,
61,X,1,x,60,60,0,x,1,0.46070219998364337,0.22778919999836944,0,60,60,60,270.1283999000152,,,,,,,,,,,270.11512770000263,270.1283999000152,270.1283999000152,270.3115886999876,270.3279373999976,272.1028735,x,1,0.46070219998364337,0.22778919999836944,,000012,001,2024-10-09_13h27.02.247,cpt_test,2024.2.2,60.098826514216384,2024-10-09 13h30.40.328627 -0600,
62,V,0,None,61,61,0,None,1,,,0,61,61,61,272.1150170000037,,,,,,,,,,,272.10326709999936,272.1150170000037,272.1150170000037,272.3116949000105,272.3271296999883,274.111127799988,None,1,,,,000012,001,2024-10-09_13h27.02.247,cpt_test,2024.2.2,60.098826514216384,2024-10-09 13h30.40.328627 -0600,
63,U,0,None,62,62,0,None,1,,,0,62,62,62,274.12487440000405,,,,,,,,,,,274.1112909000076,274.12487440000405,274.12487440000405,274.3084128999908,274.32456969999475,276.1089452999877,None,1,,,,000012,001,2024-10-09_13h27.02.247,cpt_test,2024.2.2,60.098826514216384,2024-10-09 13h30.40.328627 -0600,
64,M,0,None,63,63,0,None,1,,,0,63,63,63,276.123410900007,,,,,,,,,,,276.1091020999884,276.123410900007,276.123410900007,276.3064857000136,276.3228252000117,278.10716559999855,None,1,,,,000012,001,2024-10-09_13h27.02.247,cpt_test,2024.2.2,60.098826514216384,2024-10-09 13h30.40.328627 -0600,
65,X,1,x,64,64,0,x,1,0.48490109998965636,0.2837329000176396,0,64,64,64,278.12182369999937,,,,,,,,,,,278.1073180999956,278.12182369999937,278.12182369999937,278.30513079999946,278.3214387999906,280.1062185000046,x,1,0.48490109998965636,0.2837329000176396,,000012,001,2024-10-09_13h27.02.247,cpt_test,2024.2.2,60.098826514216384,2024-10-09 13h30.40.328627 -0600,
66,A,0,None,65,65,0,None,1,,,0,65,65,65,280.120064799994,,,,,,,,,,,280.1064129000006,280.120064799994,280.120064799994,280.30330500000855,280.31956279999577,282.1049490000005,None,1,,,,000012,001,2024-10-09_13h27.02.247,cpt_test,2024.2.2,60.098826514216384,2024-10-09 13h30.40.328627 -0600,
67,N,0,None,66,66,0,None,1,,,0,66,66,66,282.1185642000055,,,,,,,,,,,282.1051339000114,282.1185642000055,282.1185642000055,282.30145020000055,282.31793650001055,284.1024194000056,None,1,,,,000012,001,2024-10-09_13h27.02.247,cpt_test,2024.2.2,60.098826514216384,2024-10-09 13h30.40.328627 -0600,
68,H,0,None,67,67,0,None,1,,,0,67,67,67,284.1192341000133,,,,,,,,,,,284.1025656000129,284.1192341000133,284.1192341000133,284.3000311999931,284.3329061999975,286.1011709999875,None,1,,,,000012,001,2024-10-09_13h27.02.247,cpt_test,2024.2.2,60.098826514216384,2024-10-09 13h30.40.328627 -0600,
69,A,0,None,68,68,0,None,1,,,0,68,68,68,286.1152025999909,,,,,,,,,,,286.1013504000148,286.1152025999909,286.1152025999909,286.3147151999874,286.3147151999874,288.10604220000096,None,1,,,,000012,001,2024-10-09_13h27.02.247,cpt_test,2024.2.2,60.098826514216384,2024-10-09 13h30.40.328627 -0600,
70,X,1,x,69,69,0,x,1,0.41402409999864176,0.26650499997776933,0,69,69,69,288.1192185000109,,,,,,,,,,,288.10641690000193,288.1192185000109,288.1192185000109,288.31284170001163,288.3305273000151,290.1146716999938,x,1,0.41402409999864176,0.26650499997776933,,000012,001,2024-10-09_13h27.02.247,cpt_test,2024.2.2,60.098826514216384,2024-10-09 13h30.40.328627 -0600,
71,F,0,None,70,70,0,None,1,,,0,70,70,70,290.12855190000846,,,,,,,,,,,290.11488159999135,290.12855190000846,290.12855190000846,290.31181710000965,290.328162699996,292.1123507999873,None,1,,,,000012,001,2024-10-09_13h27.02.247,cpt_test,2024.2.2,60.098826514216384,2024-10-09 13h30.40.328627 -0600,
72,N,0,None,71,71,0,None,1,,,0,71,71,71,292.12683009999455,,,,,,,,,,,292.11249930001213,292.12683009999455,292.12683009999455,292.30988340001204,292.32648479999625,294.1109436000115,None,1,,,,000012,001,2024-10-09_13h27.02.247,cpt_test,2024.2.2,60.098826514216384,2024-10-09 13h30.40.328627 -0600,
73,K,0,None,72,72,0,None,1,,,0,72,72,72,294.1249734000012,,,,,,,,,,,294.1110978999932,294.1249734000012,294.1249734000012,294.30846480000764,294.324632200005,296.1094682000112,None,1,,,,000012,001,2024-10-09_13h27.02.247,cpt_test,2024.2.2,60.098826514216384,2024-10-09 13h30.40.328627 -0600,
74,Y,0,None,73,73,0,None,1,,,0,73,73,73,296.12364669999806,,,,,,,,,,,296.10962790000485,296.12364669999806,296.12364669999806,296.3069478000107,296.32303910001065,298.10762039999827,None,1,,,,000012,001,2024-10-09_13h27.02.247,cpt_test,2024.2.2,60.098826514216384,2024-10-09 13h30.40.328627 -0600,
75,Y,0,None,74,74,0,None,1,,,0,74,74,74,298.12210730000515,,,,,,,,,,,298.1077782000066,298.12210730000515,298.12210730000515,298.30525659999694,298.3214910000097,300.10680259999936,None,1,,,,000012,001,2024-10-09_13h27.02.247,cpt_test,2024.2.2,60.098826514216384,2024-10-09 13h30.40.328627 -0600,
76,R,0,None,75,75,0,None,1,,,0,75,75,75,300.1201465000049,,,,,,,,,,,300.10701110001537,300.1201465000049,300.1201465000049,300.30345919998945,300.31960240000626,302.10440959999687,None,1,,,,000012,001,2024-10-09_13h27.02.247,cpt_test,2024.2.2,60.098826514216384,2024-10-09 13h30.40.328627 -0600,
77,X,1,x,76,76,0,x,1,0.40050740001606755,0.23752749999403022,0,76,76,76,302.11870200000703,,,,,,,,,,,302.10459900001297,302.11870200000703,302.11870200000703,302.30166749999626,302.31829299998935,304.1042168000131,x,1,0.40050740001606755,0.23752749999403022,,000012,001,2024-10-09_13h27.02.247,cpt_test,2024.2.2,60.098826514216384,2024-10-09 13h30.40.328627 -0600,
78,R,0,None,77,77,0,None,1,,,0,77,77,77,304.11712859998806,,,,,,,,,,,304.10447409999324,304.11712859998806,304.11712859998806,304.3001913999906,304.31642160000047,306.1012136999925,None,1,,,,000012,001,2024-10-09_13h27.02.247,cpt_test,2024.2.2,60.098826514216384,2024-10-09 13h30.40.328627 -0600,
79,F,0,None,78,78,0,None,1,,,0,78,78,78,306.11522340000374,,,,,,,,,,,306.10137759998906,306.11522340000374,306.11522340000374,306.31486439998844,306.31486439998844,308.1159677999967,None,1,,,,000012,001,2024-10-09_13h27.02.247,cpt_test,2024.2.2,60.098826514216384,2024-10-09 13h30.40.328627 -0600,
80,K,0,None,79,79,0,None,1,,,0,79,79,79,308.1302377000102,,,,,,,,,,,308.1161304000125,308.1302377000102,308.1302377000102,308.31349229998887,308.3298812000139,310.11434910001117,None,1,,,,000012,001,2024-10-09_13h27.02.247,cpt_test,2024.2.2,60.098826514216384,2024-10-09 13h30.40.328627 -0600,
81,O,0,None,80,80,0,None,1,,,0,80,80,80,310.12862639999366,,,,,,,,,,,310.11450460000196,310.12862639999366,310.12862639999366,310.3120307000063,310.32836990000214,312.11289379998925,None,1,,,,000012,001,2024-10-09_13h27.02.247,cpt_test,2024.2.2,60.098826514216384,2024-10-09 13h30.40.328627 -0600,
82,F,0,None,81,81,0,None,1,,,0,81,81,81,312.1271228000114,,,,,,,,,,,312.1130620999902,312.1271228000114,312.1271228000114,312.3103403999994,312.3267446999962,314.11117670001113,None,1,,,,000012,001,2024-10-09_13h27.02.247,cpt_test,2024.2.2,60.098826514216384,2024-10-09 13h30.40.328627 -0600,
83,F,0,None,82,82,0,None,1,,,0,82,82,82,314.1254736999981,,,,,,,,,,,314.1113639000105,314.1254736999981,314.1254736999981,314.3083880000049,314.3249603000004,316.10962040000595,None,1,,,,000012,001,2024-10-09_13h27.02.247,cpt_test,2024.2.2,60.098826514216384,2024-10-09 13h30.40.328627 -0600,
84,W,0,None,83,83,0,None,1,,,0,83,83,83,316.129826999997,,,,,,,,,,,316.10978080000496,316.129826999997,316.129826999997,316.3072197000147,316.3398300000117,318.1085434000124,None,1,,,,000012,001,2024-10-09_13h27.02.247,cpt_test,2024.2.2,60.098826514216384,2024-10-09 13h30.40.328627 -0600,
85,X,1,x,84,84,0,x,1,0.43407839999417774,0.2331123000185471,0,84,84,84,318.12218390000635,,,,,,,,,,,318.1087347000139,318.12218390000635,318.12218390000635,318.3053072000039,318.32170850000693,320.1077220000152,x,1,0.43407839999417774,0.2331123000185471,,000012,001,2024-10-09_13h27.02.247,cpt_test,2024.2.2,60.098826514216384,2024-10-09 13h30.40.328627 -0600,
86,J,0,None,85,85,0,None,1,,,0,85,85,85,320.12024340001517,,,,,,,,,,,320.10798289999366,320.12024340001517,320.12024340001517,320.3034034000011,320.3200866999978,322.10505459998967,None,1,,,,000012,001,2024-10-09_13h27.02.247,cpt_test,2024.2.2,60.098826514216384,2024-10-09 13h30.40.328627 -0600,
87,N,0,None,86,86,0,None,1,,,0,86,86,86,322.118716500001,,,,,,,,,,,322.10524689999875,322.118716500001,322.118716500001,322.30197979998775,322.3184033000143,324.10360579998815,None,1,,,,000012,001,2024-10-09_13h27.02.247,cpt_test,2024.2.2,60.098826514216384,2024-10-09 13h30.40.328627 -0600,
88,X,1,x,87,87,0,x,1,0.5796665999805555,0.28464270001859404,0,87,87,87,324.11736979999114,,,,,,,,,,,324.1037976999942,324.11736979999114,324.11736979999114,324.3005231000134,324.3165891999961,326.10133810000843,x,1,0.5796665999805555,0.28464270001859404,,000012,001,2024-10-09_13h27.02.247,cpt_test,2024.2.2,60.098826514216384,2024-10-09 13h30.40.328627 -0600,
89,T,0,None,88,88,0,None,1,,,0,88,88,88,326.1156825000071,,,,,,,,,,,326.1015139000083,326.1156825000071,326.1156825000071,326.31512620000285,326.31512620000285,328.1167820999981,None,1,,,,000012,001,2024-10-09_13h27.02.247,cpt_test,2024.2.2,60.098826514216384,2024-10-09 13h30.40.328627 -0600,
90,I,0,None,89,89,0,None,1,,,0,89,89,89,328.13022039999487,,,,,,,,,,,328.1169683999906,328.13022039999487,328.13022039999487,328.3134694999899,328.33006300000125,330.1146946999943,None,1,,,,000012,001,2024-10-09_13h27.02.247,cpt_test,2024.2.2,60.098826514216384,2024-10-09 13h30.40.328627 -0600,
91,P,0,None,90,90,0,None,1,,,0,90,90,90,330.1288579000102,,,,,,,,,,,330.11485829998855,330.1288579000102,330.1288579000102,330.31216170001426,330.32851890000165,332.11292230000254,None,1,,,,000012,001,2024-10-09_13h27.02.247,cpt_test,2024.2.2,60.098826514216384,2024-10-09 13h30.40.328627 -0600,
92,X,1,x,91,91,0,x,1,0.47565700000268407,0.23786059999838471,0,91,91,91,332.127093099989,,,,,,,,,,,332.1130756000057,332.127093099989,332.127093099989,332.3103683000081,332.32682889999705,334.1114864000119,x,1,0.47565700000268407,0.23786059999838471,,000012,001,2024-10-09_13h27.02.247,cpt_test,2024.2.2,60.098826514216384,2024-10-09 13h30.40.328627 -0600,
93,B,0,None,92,92,0,None,1,,,0,92,92,92,334.1254615999933,,,,,,,,,,,334.11166250001406,334.1254615999933,334.1254615999933,334.3089026999951,334.32502920000115,336.10980460001156,None,1,,,,000012,001,2024-10-09_13h27.02.247,cpt_test,2024.2.2,60.098826514216384,2024-10-09 13h30.40.328627 -0600,
94,M,0,None,93,93,0,None,1,,,0,93,93,93,336.1242290000082,,,,,,,,,,,336.1099826999998,336.1242290000082,336.1242290000082,336.3069991999946,336.3236184999987,338.1087484000018,None,1,,,,000012,001,2024-10-09_13h27.02.247,cpt_test,2024.2.2,60.098826514216384,2024-10-09 13h30.40.328627 -0600,
95,B,0,None,94,94,0,None,1,,,0,94,94,94,338.1223571000155,,,,,,,,,,,338.1089395000017,338.1223571000155,338.1223571000155,338.3053654000105,338.32191719999537,340.1072584000067,None,1,,,,000012,001,2024-10-09_13h27.02.247,cpt_test,2024.2.2,60.098826514216384,2024-10-09 13h30.40.328627 -0600,
96,I,0,None,95,95,0,None,1,,,0,95,95,95,340.1204504999914,,,,,,,,,,,340.1074482999975,340.1204504999914,340.1204504999914,340.30342479998944,340.3201826000004,342.10523889999604,None,1,,,,000012,001,2024-10-09_13h27.02.247,cpt_test,2024.2.2,60.098826514216384,2024-10-09 13h30.40.328627 -0600,
97,X,1,x,96,96,0,x,1,0.46331089999875985,0.27607540000462905,0,96,96,96,342.11883799999487,,,,,,,,,,,342.1054173000157,342.11883799999487,342.11883799999487,342.3021465000056,342.31856849999167,344.10348520000116,x,1,0.46331089999875985,0.27607540000462905,,000012,001,2024-10-09_13h27.02.247,cpt_test,2024.2.2,60.098826514216384,2024-10-09 13h30.40.328627 -0600,
98,J,0,None,97,97,0,None,1,,,0,97,97,97,344.11715870001353,,,,,,,,,,,344.1036686000007,344.11715870001353,344.11715870001353,344.3002414999937,344.31695770000806,346.10129170000437,None,1,,,,000012,001,2024-10-09_13h27.02.247,cpt_test,2024.2.2,60.098826514216384,2024-10-09 13h30.40.328627 -0600,
99,X,1,x,98,98,0,x,1,0.5302609000063967,0.2652442999824416,0,98,98,98,346.1161193999869,,,,,,,,,,,346.10144800000126,346.1161193999869,346.1161193999869,346.3153083999932,346.3153083999932,348.1008303000126,x,1,0.5302609000063967,0.2652442999824416,,000012,001,2024-10-09_13h27.02.247,cpt_test,2024.2.2,60.098826514216384,2024-10-09 13h30.40.328627 -0600,
100,U,0,None,99,99,0,None,1,,,0,99,99,99,348.11386969999876,,,,,,,,,,,348.1010485999868,348.11386969999876,348.11386969999876,348.31340439998894,348.31340439998894,350.11521200000425,None,1,,,,000012,001,2024-10-09_13h27.02.247,cpt_test,2024.2.2,60.098826514216384,2024-10-09 13h30.40.328627 -0600,
101,D,0,None,100,100,0,None,1,,,0,100,100,100,350.1289650000108,,,,,,,,,,,350.11539439999615,350.1289650000108,350.1289650000108,350.3123601000116,350.3286843000096,352.1135765000072,None,1,,,,000012,001,2024-10-09_13h27.02.247,cpt_test,2024.2.2,60.098826514216384,2024-10-09 13h30.40.328627 -0600,
102,X,1,x,101,101,0,x,1,0.44277650001458824,0.3074971000023652,0,101,101,101,352.1272536999895,,,,,,,,,,,352.113760200009,352.1272536999895,352.1272536999895,352.31072599999607,352.32697379999445,354.11248060001526,x,1,0.44277650001458824,0.3074971000023652,,000012,001,2024-10-09_13h27.02.247,cpt_test,2024.2.2,60.098826514216384,2024-10-09 13h30.40.328627 -0600,
103,X,1,x,102,102,0,x,1,0.4979188999859616,0.2690602999937255,0,102,102,102,354.125758899987,,,,,,,,,,,354.11270289999084,354.125758899987,354.125758899987,354.3089813000115,354.32537720000255,356.10999970001285,x,1,0.4979188999859616,0.2690602999937255,,000012,001,2024-10-09_13h27.02.247,cpt_test,2024.2.2,60.098826514216384,2024-10-09 13h30.40.328627 -0600,
104,N,0,None,103,103,0,None,1,,,0,103,103,103,356.1239360999898,,,,,,,,,,,356.1102006000001,356.1239360999898,356.1239360999898,356.30718619999243,356.3237994000083,358.1093082000152,None,1,,,,000012,001,2024-10-09_13h27.02.247,cpt_test,2024.2.2,60.098826514216384,2024-10-09 13h30.40.328627 -0600,
105,U,0,None,104,104,0,None,1,,,0,104,104,104,358.1222735999909,,,,,,,,,,,358.1095171000052,358.1222735999909,358.1222735999909,358.3057955999975,358.32186140000704,360.10752320001484,None,1,,,,000012,001,2024-10-09_13h27.02.247,cpt_test,2024.2.2,60.098826514216384,2024-10-09 13h30.40.328627 -0600,
106,T,0,None,105,105,0,None,1,,,0,105,105,105,360.1209118000115,,,,,,,,,,,360.10772599998745,360.1209118000115,360.1209118000115,360.30395649999264,360.32041740001296,362.1052939000074,None,1,,,,000012,001,2024-10-09_13h27.02.247,cpt_test,2024.2.2,60.098826514216384,2024-10-09 13h30.40.328627 -0600,
107,W,0,None,106,106,0,None,1,,,0,106,106,106,362.11937470000703,,,,,,,,,,,362.1054806000029,362.11937470000703,362.11937470000703,362.3024229000148,362.31874660000904,364.10435119998874,None,1,,,,000012,001,2024-10-09_13h27.02.247,cpt_test,2024.2.2,60.098826514216384,2024-10-09 13h30.40.328627 -0600,
108,N,0,None,107,107,0,None,1,,,0,107,107,107,364.11765699999523,,,,,,,,,,,364.10460729998886,364.11765699999523,364.11765699999523,364.3008397000085,364.31705320000765,366.1032162999909,None,1,,,,000012,001,2024-10-09_13h27.02.247,cpt_test,2024.2.2,60.098826514216384,2024-10-09 13h30.40.328627 -0600,
109,R,0,None,108,108,0,None,1,,,0,108,108,108,366.1157950999914,,,,,,,,,,,366.10344770000665,366.1157950999914,366.1157950999914,366.315318900015,366.315318900015,368.10081050000736,None,1,,,,000012,001,2024-10-09_13h27.02.247,cpt_test,2024.2.2,60.098826514216384,2024-10-09 13h30.40.328627 -0600,
110,X,1,x,109,109,0,x,1,0.5156314999912865,0.37290429999120533,0,109,109,109,368.1143272999907,,,,,,,,,,,368.1010047000018,368.1143272999907,368.1143272999907,368.3136960999982,368.3136960999982,370.11576019998756,x,1,0.5156314999912865,0.37290429999120533,,000012,001,2024-10-09_13h27.02.247,cpt_test,2024.2.2,60.098826514216384,2024-10-09 13h30.40.328627 -0600,
111,A,0,None,110,110,0,None,1,,,0,110,110,110,370.129351200012,,,,,,,,,,,370.11597320000874,370.129351200012,370.129351200012,370.3123980000091,370.32880769998883,372.1142441999982,None,1,,,,000012,001,2024-10-09_13h27.02.247,cpt_test,2024.2.2,60.098826514216384,2024-10-09 13h30.40.328627 -0600,
112,X,1,x,111,111,0,x,1,0.48799809999763966,0.2290962999977637,0,111,111,111,372.1274751999881,,,,,,,,,,,372.1144714000111,372.1274751999881,372.1274751999881,372.3108348000096,372.327211900003,374.11256450001383,x,1,0.48799809999763966,0.2290962999977637,,000012,001,2024-10-09_13h27.02.247,cpt_test,2024.2.2,60.098826514216384,2024-10-09 13h30.40.328627 -0600,
113,G,0,None,112,112,0,None,1,,,0,112,112,112,374.12611730000935,,,,,,,,,,,374.1127795999928,374.12611730000935,374.12611730000935,374.3092553000024,374.3254253999912,376.11103619998903,None,1,,,,000012,001,2024-10-09_13h27.02.247,cpt_test,2024.2.2,60.098826514216384,2024-10-09 13h30.40.328627 -0600,
114,O,0,None,113,113,0,None,1,,,0,113,113,113,376.12445679999655,,,,,,,,,,,376.11123169999337,376.12445679999655,376.12445679999655,376.30764250000357,376.32383489998756,378.1093389999878,None,1,,,,000012,001,2024-10-09_13h27.02.247,cpt_test,2024.2.2,60.098826514216384,2024-10-09 13h30.40.328627 -0600,
115,U,0,None,114,114,0,None,1,,,0,114,114,114,378.12283410000964,,,,,,,,,,,378.10953220000374,378.12283410000964,378.12283410000964,378.3057078999991,378.32233769999584,380.10822510000435,None,1,,,,000012,001,2024-10-09_13h27.02.247,cpt_test,2024.2.2,60.098826514216384,2024-10-09 13h30.40.328627 -0600,
116,X,1,x,115,115,0,x,1,0.48407289999886416,0.26136989999213256,0,115,115,115,380.12115049999557,,,,,,,,,,,380.1084550000087,380.12115049999557,380.12115049999557,380.30444080001325,380.32057599999825,382.1060059000156,x,1,0.48407289999886416,0.26136989999213256,,000012,001,2024-10-09_13h27.02.247,cpt_test,2024.2.2,60.098826514216384,2024-10-09 13h30.40.328627 -0600,
117,X,1,x,116,116,0,x,1,0.7961500000092201,0.25149140000576153,0,116,116,116,382.1191780999943,,,,,,,,,,,382.1062171999947,382.1191780999943,382.1191780999943,382.3025803999917,382.3188201999874,384.1048873999971,x,1,0.7961500000092201,0.25149140000576153,,000012,001,2024-10-09_13h27.02.247,cpt_test,2024.2.2,60.098826514216384,2024-10-09 13h30.40.328627 -0600,
118,C,0,None,117,117,0,None,1,,,0,117,117,117,384.11763389999396,,,,,,,,,,,384.1051443000033,384.11763389999396,384.11763389999396,384.3009098999901,384.31734939999296,386.10283379998873,None,1,,,,000012,001,2024-10-09_13h27.02.247,cpt_test,2024.2.2,60.098826514216384,2024-10-09 13h30.40.328627 -0600,
119,A,0,None,118,118,0,None,1,,,0,118,118,118,386.1159575000056,,,,,,,,,,,386.1030354000104,386.1159575000056,386.1159575000056,386.3156406999915,386.3156406999915,388.1008802000142,None,1,,,,000012,001,2024-10-09_13h27.02.247,cpt_test,2024.2.2,60.098826514216384,2024-10-09 13h30.40.328627 -0600,
120,X,1,x,119,119,0,x,1,0.4886120999872219,0.23297720000846311,0,119,119,119,388.11449020000873,,,,,,,,,,,388.101075100014,388.11449020000873,388.11449020000873,388.3141709000047,388.3141709000047,390.1167567000084,x,1,0.4886120999872219,0.23297720000846311,,000012,001,2024-10-09_13h27.02.247,cpt_test,2024.2.2,60.098826514216384,2024-10-09 13h30.40.328627 -0600,
121,H,0,None,120,120,0,None,1,,,0,120,120,120,390.12961219999124,,,,,,,,,,,390.1169996999961,390.12961219999124,390.12961219999124,390.3127075000084,390.32902450000984,392.11510460000136,None,1,,,,000012,001,2024-10-09_13h27.02.247,cpt_test,2024.2.2,60.098826514216384,2024-10-09 13h30.40.328627 -0600,
122,M,0,None,121,121,0,None,1,,,0,121,121,121,392.1277228000108,,,,,,,,,,,392.1153376000002,392.1277228000108,392.1277228000108,392.310905499995,392.3274223000044,394.11276419999194,None,1,,,,000012,001,2024-10-09_13h27.02.247,cpt_test,2024.2.2,60.098826514216384,2024-10-09 13h30.40.328627 -0600,
123,V,0,None,122,122,0,None,1,,,0,122,122,122,394.12602960001095,,,,,,,,,,,394.1129901999957,394.12602960001095,394.12602960001095,394.3094251000148,394.32587209998746,396.1110797000001,None,1,,,,000012,001,2024-10-09_13h27.02.247,cpt_test,2024.2.2,60.098826514216384,2024-10-09 13h30.40.328627 -0600,
124,K,0,None,123,123,0,None,1,,,0,123,123,123,396.1245029999991,,,,,,,,,,,396.11126589999185,396.1245029999991,396.1245029999991,396.30755789999967,396.32389190001413,398.10950220000814,None,1,,,,000012,001,2024-10-09_13h27.02.247,cpt_test,2024.2.2,60.098826514216384,2024-10-09 13h30.40.328627 -0600,
125,G,0,None,124,124,0,None,1,,,0,124,124,124,398.12306610000087,,,,,,,,,,,398.1097038000007,398.12306610000087,398.12306610000087,398.30623690001084,398.3224523999961,400.1086248999927,None,1,,,,000012,001,2024-10-09_13h27.02.247,cpt_test,2024.2.2,60.098826514216384,2024-10-09 13h30.40.328627 -0600,
126,A,0,None,125,125,0,None,1,,,0,125,125,125,400.12133240001276,,,,,,,,,,,400.1088698999956,400.12133240001276,400.12133240001276,400.3042815999943,400.3206494000042,402.1062454000057,None,1,,,,000012,001,2024-10-09_13h27.02.247,cpt_test,2024.2.2,60.098826514216384,2024-10-09 13h30.40.328627 -0600,
127,X,1,x,126,126,0,x,1,0.4973396999994293,0.279770399996778,0,126,126,126,402.11941159999697,,,,,,,,,,,402.1064467999968,402.11941159999697,402.11941159999697,402.30283229998895,402.3190559000068,404.1042148999986,x,1,0.4973396999994293,0.279770399996778,,000012,001,2024-10-09_13h27.02.247,cpt_test,2024.2.2,60.098826514216384,2024-10-09 13h30.40.328627 -0600,
128,N,0,None,127,127,0,None,1,,,0,127,127,127,404.1180233999912,,,,,,,,,,,404.1044200999895,404.1180233999912,404.1180233999912,404.3012366000039,404.3172917999909,406.1027364000038,None,1,,,,000012,001,2024-10-09_13h27.02.247,cpt_test,2024.2.2,60.098826514216384,2024-10-09 13h30.40.328627 -0600,
129,Y,0,None,128,128,0,None,1,,,0,128,128,128,406.1163732999994,,,,,,,,,,,406.1029298999929,406.1163732999994,406.1163732999994,406.315811700013,406.315811700013,408.10115510001197,None,1,,,,000012,001,2024-10-09_13h27.02.247,cpt_test,2024.2.2,60.098826514216384,2024-10-09 13h30.40.328627 -0600,
130,W,0,None,129,129,0,None,1,,,0,129,129,129,408.1149487000075,,,,,,,,,,,408.1013621999882,408.1149487000075,408.1149487000075,408.3141747000045,408.3141747000045,410.1161384000152,None,1,,,,000012,001,2024-10-09_13h27.02.247,cpt_test,2024.2.2,60.098826514216384,2024-10-09 13h30.40.328627 -0600,
131,L,0,None,130,130,0,None,1,,,0,130,130,130,410.12967689998914,,,,,,,,,,,410.11632739999914,410.12967689998914,410.12967689998914,410.31281730000046,410.32932230000733,412.1144610999909,None,1,,,,000012,001,2024-10-09_13h27.02.247,cpt_test,2024.2.2,60.098826514216384,2024-10-09 13h30.40.328627 -0600,
132,F,0,None,131,131,0,None,1,,,0,131,131,131,412.12804330000654,,,,,,,,,,,412.11466270001256,412.12804330000654,412.12804330000654,412.3112196000002,412.3274877000076,414.1132166000025,None,1,,,,000012,001,2024-10-09_13h27.02.247,cpt_test,2024.2.2,60.098826514216384,2024-10-09 13h30.40.328627 -0600,
133,E,0,None,132,132,0,None,1,,,0,132,132,132,414.1263174999913,,,,,,,,,,,414.11342420001165,414.1263174999913,414.1263174999913,414.31049110001186,414.32596970000304,416.1111697999877,None,1,,,,000012,001,2024-10-09_13h27.02.247,cpt_test,2024.2.2,60.098826514216384,2024-10-09 13h30.40.328627 -0600,
134,L,0,None,133,133,0,None,1,,,0,133,133,133,416.1250835999963,,,,,,,,,,,416.1113700999995,416.1250835999963,416.1250835999963,416.3079686000128,416.3243550999905,418.10920100001385,None,1,,,,000012,001,2024-10-09_13h27.02.247,cpt_test,2024.2.2,60.098826514216384,2024-10-09 13h30.40.328627 -0600,
135,K,0,None,134,134,0,None,1,,,0,134,134,134,418.123110799992,,,,,,,,,,,418.1093770999869,418.123110799992,418.123110799992,418.30629589999444,418.32272319999174,420.10730939998757,None,1,,,,000012,001,2024-10-09_13h27.02.247,cpt_test,2024.2.2,60.098826514216384,2024-10-09 13h30.40.328627 -0600,
136,Q,0,None,135,135,0,None,1,,,0,135,135,135,420.1212499999965,,,,,,,,,,,420.1074806000106,420.1212499999965,420.1212499999965,420.3044247000071,420.32098330001463,422.105753300013,None,1,,,,000012,001,2024-10-09_13h27.02.247,cpt_test,2024.2.2,60.098826514216384,2024-10-09 13h30.40.328627 -0600,
137,X,1,x,136,136,0,x,1,0.49595459998818114,0.22498240001732484,0,136,136,136,422.1197618000151,,,,,,,,,,,422.10593250000966,422.1197618000151,422.1197618000151,422.3030127999955,422.31936150000547,424.1033585999976,x,1,0.49595459998818114,0.22498240001732484,,000012,001,2024-10-09_13h27.02.247,cpt_test,2024.2.2,60.098826514216384,2024-10-09 13h30.40.328627 -0600,
138,J,0,None,137,137,0,None,1,,,0,137,137,137,424.11776409999584,,,,,,,,,,,424.1035058000125,424.11776409999584,424.11776409999584,424.30139350000536,424.3175951000012,426.1025232000102,None,1,,,,000012,001,2024-10-09_13h27.02.247,cpt_test,2024.2.2,60.098826514216384,2024-10-09 13h30.40.328627 -0600,
139,X,1,x,138,138,0,None,0,,,0,138,138,138,426.1164056000125,,,,,,,,,,,426.10269840000547,426.1164056000125,426.1164056000125,426.2998077000084,426.3159822000016,428.1015150999883,None,0,,,,000012,001,2024-10-09_13h27.02.247,cpt_test,2024.2.2,60.098826514216384,2024-10-09 13h30.40.328627 -0600,
140,E,0,None,139,139,0,None,1,,,0,139,139,139,428.1147717999993,,,,,,,,,,,428.10170860000653,428.1147717999993,428.1147717999993,428.31419169998844,428.31419169998844,430.116159600002,None,1,,,,000012,001,2024-10-09_13h27.02.247,cpt_test,2024.2.2,60.098826514216384,2024-10-09 13h30.40.328627 -0600,
141,T,0,None,140,140,0,None,1,,,0,140,140,140,430.12967640001443,,,,,,,,,,,430.11634470001445,430.12967640001443,430.12967640001443,430.31282479999936,430.3293795000063,432.1142994000111,None,1,,,,000012,001,2024-10-09_13h27.02.247,cpt_test,2024.2.2,60.098826514216384,2024-10-09 13h30.40.328627 -0600,
142,X,1,x,141,141,0,x,1,0.489171900000656,0.2524769000010565,0,141,141,141,432.1283445000008,,,,,,,,,,,432.11446889999206,432.1283445000008,432.1283445000008,432.311317899992,432.3277863000112,434.11345530001563,x,1,0.489171900000656,0.2524769000010565,,000012,001,2024-10-09_13h27.02.247,cpt_test,2024.2.2,60.098826514216384,2024-10-09 13h30.40.328627 -0600,
143,Q,0,None,142,142,0,None,1,,,0,142,142,142,434.12641689999145,,,,,,,,,,,434.11367719998816,434.12641689999145,434.12641689999145,434.309591199999,434.3260787999898,436.11168629999156,None,1,,,,000012,001,2024-10-09_13h27.02.247,cpt_test,2024.2.2,60.098826514216384,2024-10-09 13h30.40.328627 -0600,
144,V,0,None,143,143,0,None,1,,,0,143,143,143,436.1249179999868,,,,,,,,,,,436.11188710000715,436.1249179999868,436.1249179999868,436.3079277999932,436.3245571999869,438.1094388999918,None,1,,,,000012,001,2024-10-09_13h27.02.247,cpt_test,2024.2.2,60.098826514216384,2024-10-09 13h30.40.328627 -0600,
145,Y,0,None,144,144,0,None,1,,,0,144,144,144,438.1230481000093,,,,,,,,,,,438.1096167000069,438.1230481000093,438.1230481000093,438.30610779998824,438.32271100001526,440.10837490000995,None,1,,,,000012,001,2024-10-09_13h27.02.247,cpt_test,2024.2.2,60.098826514216384,2024-10-09 13h30.40.328627 -0600,
146,O,0,None,145,145,0,None,1,,,0,145,145,145,440.1214142999961,,,,,,,,,,,440.10855810000794,440.1214142999961,440.1214142999961,440.3047244999907,440.32120579999173,442.10674980000476,None,1,,,,000012,001,2024-10-09_13h27.02.247,cpt_test,2024.2.2,60.098826514216384,2024-10-09 13h30.40.328627 -0600,
147,T,0,None,146,146,0,None,1,,,0,146,146,146,442.12005220001447,,,,,,,,,,,442.10695139999734,442.12005220001447,442.12005220001447,442.30320299998857,442.31937010001275,444.104222199996,None,1,,,,000012,001,2024-10-09_13h27.02.247,cpt_test,2024.2.2,60.098826514216384,2024-10-09 13h30.40.328627 -0600,
148,X,1,x,147,147,0,x,1,0.4945990999985952,0.25282379999407567,0,147,147,147,444.118195499992,,,,,,,,,,,444.10438510001404,444.118195499992,444.118195499992,444.30143210000824,444.31776440000976,446.1027766999905,x,1,0.4945990999985952,0.25282379999407567,,000012,001,2024-10-09_13h27.02.247,cpt_test,2024.2.2,60.098826514216384,2024-10-09 13h30.40.328627 -0600,
149,T,0,None,148,148,0,None,1,,,0,148,148,148,446.1168247000023,,,,,,,,,,,446.1029694000026,446.1168247000023,446.1168247000023,446.29970299999695,446.3162841000012,448.1015180000104,None,1,,,,000012,001,2024-10-09_13h27.02.247,cpt_test,2024.2.2,60.098826514216384,2024-10-09 13h30.40.328627 -0600,
150,S,0,None,149,149,0,None,1,,,0,149,149,149,448.1152326000156,,,,,,,,,,,448.10170880000805,448.1152326000156,448.1152326000156,448.3146848999895,448.3146848999895,450.11598609999055,None,1,,,,000012,001,2024-10-09_13h27.02.247,cpt_test,2024.2.2,60.098826514216384,2024-10-09 13h30.40.328627 -0600,
151,L,0,None,150,150,0,None,1,,,0,150,150,150,450.1299730000028,,,,,,,,,,,450.1161559000029,450.1299730000028,450.1299730000028,450.3131691000017,450.3294348999916,452.1144321000029,None,1,,,,000012,001,2024-10-09_13h27.02.247,cpt_test,2024.2.2,60.098826514216384,2024-10-09 13h30.40.328627 -0600,
152,V,0,None,151,151,0,None,1,,,0,151,151,151,452.12827819999075,,,,,,,,,,,452.1146141999925,452.12827819999075,452.12827819999075,452.3114537000074,452.3282476000022,454.11253760001273,None,1,,,,000012,001,2024-10-09_13h27.02.247,cpt_test,2024.2.2,60.098826514216384,2024-10-09 13h30.40.328627 -0600,
153,C,0,None,152,152,0,None,1,,,0,152,152,152,454.1265587999951,,,,,,,,,,,454.11269770000945,454.1265587999951,454.1265587999951,454.3098651999899,454.3263055999996,456.1113966999983,None,1,,,,000012,001,2024-10-09_13h27.02.247,cpt_test,2024.2.2,60.098826514216384,2024-10-09 13h30.40.328627 -0600,
154,U,0,None,153,153,0,None,1,,,0,153,153,153,456.1251540000085,,,,,,,,,,,456.1115845000022,456.1251540000085,456.1251540000085,456.30842109999503,456.32462510000914,458.1090186999936,None,1,,,,000012,001,2024-10-09_13h27.02.247,cpt_test,2024.2.2,60.098826514216384,2024-10-09 13h30.40.328627 -0600,
155,X,1,x,154,154,0,x,1,0.7210007999965455,0.2529849999991711,0,154,154,154,458.1235142000078,,,,,,,,,,,458.1091766000027,458.1235142000078,458.1235142000078,458.3065081000095,458.3231317999889,460.1076824000047,x,1,0.7210007999965455,0.2529849999991711,,000012,001,2024-10-09_13h27.02.247,cpt_test,2024.2.2,60.098826514216384,2024-10-09 13h30.40.328627 -0600,
156,X,1,x,155,155,0,x,1,0.5483013000048231,0.2662486000044737,0,155,155,155,460.12169130000984,,,,,,,,,,,460.1078619000036,460.12169130000984,460.12169130000984,460.3050996999955,460.32143010001164,462.10614340001484,x,1,0.5483013000048231,0.2662486000044737,,000012,001,2024-10-09_13h27.02.247,cpt_test,2024.2.2,60.098826514216384,2024-10-09 13h30.40.328627 -0600,
157,L,0,None,156,156,0,None,1,,,0,156,156,156,462.11988869999186,,,,,,,,,,,462.1063084999914,462.11988869999186,462.11988869999186,462.30302429999574,462.31957970000803,464.1040120999969,None,1,,,,000012,001,2024-10-09_13h27.02.247,cpt_test,2024.2.2,60.098826514216384,2024-10-09 13h30.40.328627 -0600,
158,W,0,None,157,157,0,None,1,,,0,157,157,157,464.11844839999685,,,,,,,,,,,464.1041663000069,464.11844839999685,464.11844839999685,464.30186259999755,464.3180504000047,466.1026123999909,None,1,,,,000012,001,2024-10-09_13h27.02.247,cpt_test,2024.2.2,60.098826514216384,2024-10-09 13h30.40.328627 -0600,
159,A,0,None,158,158,0,None,1,,,0,158,158,158,466.11672140000155,,,,,,,,,,,466.10277269998915,466.11672140000155,466.11672140000155,466.2997578000068,466.3161005000002,468.10097530001076,None,1,,,,000012,001,2024-10-09_13h27.02.247,cpt_test,2024.2.2,60.098826514216384,2024-10-09 13h30.40.328627 -0600,
160,X,1,x,159,159,0,x,1,0.4411887000023853,0.2576147000072524,0,159,159,159,468.11515460000373,,,,,,,,,,,468.1011403000157,468.11515460000373,468.11515460000373,468.314434800006,468.314434800006,470.11691620000056,x,1,0.4411887000023853,0.2576147000072524,,000012,001,2024-10-09_13h27.02.247,cpt_test,2024.2.2,60.098826514216384,2024-10-09 13h30.40.328627 -0600,
161,A,0,None,160,160,0,None,1,,,0,160,160,160,470.1299958000018,,,,,,,,,,,470.11711230000947,470.1299958000018,470.1299958000018,470.31333710000035,470.32985599999665,472.1147567000007,None,1,,,,000012,001,2024-10-09_13h27.02.247,cpt_test,2024.2.2,60.098826514216384,2024-10-09 13h30.40.328627 -0600,
162,M,0,None,161,161,0,None,1,,,0,161,161,161,472.12873719999334,,,,,,,,,,,472.11494080000557,472.12873719999334,472.12873719999334,472.31175890000304,472.3282002999913,474.11327750000055,None,1,,,,000012,001,2024-10-09_13h27.02.247,cpt_test,2024.2.2,60.098826514216384,2024-10-09 13h30.40.328627 -0600,
163,X,1,x,162,162,0,x,1,0.5489693999988958,0.2509853999945335,0,162,162,162,474.1270426000119,,,,,,,,,,,474.1134699000104,474.1270426000119,474.1270426000119,474.3101517999894,474.32628070001374,476.1115157000022,x,1,0.5489693999988958,0.2509853999945335,,000012,001,2024-10-09_13h27.02.247,cpt_test,2024.2.2,60.098826514216384,2024-10-09 13h30.40.328627 -0600,
164,X,1,x,163,163,0,x,1,0.7102909999957774,0.30724610001198016,0,163,163,163,476.12532230000943,,,,,,,,,,,476.1117091999913,476.12532230000943,476.12532230000943,476.3083184999996,476.3245942000067,478.10939950001193,x,1,0.7102909999957774,0.30724610001198016,,000012,001,2024-10-09_13h27.02.247,cpt_test,2024.2.2,60.098826514216384,2024-10-09 13h30.40.328627 -0600,
165,K,0,None,164,164,0,None,1,,,0,164,164,164,478.1238208000141,,,,,,,,,,,478.1095662000007,478.1238208000141,478.1238208000141,478.3066575000121,478.32313740000245,480.1089682999882,None,1,,,,000012,001,2024-10-09_13h27.02.247,cpt_test,2024.2.2,60.098826514216384,2024-10-09 13h30.40.328627 -0600,
166,X,1,x,165,165,0,x,1,0.5051918999815825,0.24707959999796003,0,165,165,165,480.122157100006,,,,,,,,,,,480.10917820001487,480.122157100006,480.122157100006,480.3053201000148,480.3213926999888,482.1063528000086,x,1,0.5051918999815825,0.24707959999796003,,000012,001,2024-10-09_13h27.02.247,cpt_test,2024.2.2,60.098826514216384,2024-10-09 13h30.40.328627 -0600,
167,M,0,None,166,166,0,None,1,,,0,166,166,166,482.1206821000087,,,,,,,,,,,482.10652810000465,482.1206821000087,482.1206821000087,482.30368949999684,482.3199223999982,484.1051749000035,None,1,,,,000012,001,2024-10-09_13h27.02.247,cpt_test,2024.2.2,60.098826514216384,2024-10-09 13h30.40.328627 -0600,
168,X,1,x,167,167,0,x,1,0.39455120000639,0.24797379999654368,0,167,167,167,484.1187712000101,,,,,,,,,,,484.10536750001484,484.1187712000101,484.1187712000101,484.3018580999924,484.31822320001083,486.1035050000064,x,1,0.39455120000639,0.24797379999654368,,000012,001,2024-10-09_13h27.02.247,cpt_test,2024.2.2,60.098826514216384,2024-10-09 13h30.40.328627 -0600,
169,A,0,None,168,168,0,None,1,,,0,168,168,168,486.116898200009,,,,,,,,,,,486.10372869999264,486.116898200009,486.116898200009,486.30011149999336,486.3167344999965,488.10226590000093,None,1,,,,000012,001,2024-10-09_13h27.02.247,cpt_test,2024.2.2,60.098826514216384,2024-10-09 13h30.40.328627 -0600,
170,X,1,x,169,169,0,x,1,0.347529199993005,0.2462431000021752,0,169,169,169,488.11548209999455,,,,,,,,,,,488.10248470000806,488.11548209999455,488.11548209999455,488.31495599998743,488.31495599998743,490.1167340000102,x,1,0.347529199993005,0.2462431000021752,,000012,001,2024-10-09_13h27.02.247,cpt_test,2024.2.2,60.098826514216384,2024-10-09 13h30.40.328627 -0600,
171,L,0,None,170,170,0,None,1,,,0,170,170,170,490.1304882999975,,,,,,,,,,,490.11693310001283,490.1304882999975,490.1304882999975,490.31334880000213,490.3298771000118,492.11589809998986,None,1,,,,000012,001,2024-10-09_13h27.02.247,cpt_test,2024.2.2,60.098826514216384,2024-10-09 13h30.40.328627 -0600,
172,E,0,None,171,171,0,None,1,,,0,171,171,171,492.12857910001185,,,,,,,,,,,492.1161282999965,492.12857910001185,492.12857910001185,492.3120450999995,492.3286204999895,494.1132723999908,None,1,,,,000012,001,2024-10-09_13h27.02.247,cpt_test,2024.2.2,60.098826514216384,2024-10-09 13h30.40.328627 -0600,
173,T,0,None,172,172,0,None,1,,,0,172,172,172,494.1271057999984,,,,,,,,,,,494.1134471000114,494.1271057999984,494.1271057999984,494.31043079998926,494.3268176999991,496.1117463000119,None,1,,,,000012,001,2024-10-09_13h27.02.247,cpt_test,2024.2.2,60.098826514216384,2024-10-09 13h30.40.328627 -0600,
174,F,0,None,173,173,0,None,1,,,0,173,173,173,496.1255772000004,,,,,,,,,,,496.11191919998964,496.1255772000004,496.1255772000004,496.3087833999889,496.3249458000064,498.10944269999163,None,1,,,,000012,001,2024-10-09_13h27.02.247,cpt_test,2024.2.2,60.098826514216384,2024-10-09 13h30.40.328627 -0600,
175,M,0,None,174,174,0,None,1,,,0,174,174,174,498.12401830000454,,,,,,,,,,,498.1095995999931,498.12401830000454,498.12401830000454,498.30722499999683,498.3235812000057,500.10801920000813,None,1,,,,000012,001,2024-10-09_13h27.02.247,cpt_test,2024.2.2,60.098826514216384,2024-10-09 13h30.40.328627 -0600,
176,Q,0,None,175,175,0,None,1,,,0,175,175,175,500.1224343999929,,,,,,,,,,,500.10817130000214,500.1224343999929,500.1224343999929,500.3055391999951,500.3216855000064,502.10695350001333,None,1,,,,000012,001,2024-10-09_13h27.02.247,cpt_test,2024.2.2,60.098826514216384,2024-10-09 13h30.40.328627 -0600,
177,M,0,None,176,176,0,None,1,,,0,176,176,176,502.12017509998986,,,,,,,,,,,502.1070924999949,502.12017509998986,502.12017509998986,502.3034546000126,502.3195868000039,504.1048673999903,None,1,,,,000012,001,2024-10-09_13h27.02.247,cpt_test,2024.2.2,60.098826514216384,2024-10-09 13h30.40.328627 -0600,
178,X,1,x,177,177,0,x,1,0.4481968999898527,0.24180260000866838,0,177,177,177,504.11896270001307,,,,,,,,,,,504.10504279998713,504.11896270001307,504.11896270001307,504.30197279999265,504.3185366000107,506.1032411000051,x,1,0.4481968999898527,0.24180260000866838,,000012,001,2024-10-09_13h27.02.247,cpt_test,2024.2.2,60.098826514216384,2024-10-09 13h30.40.328627 -0600,
179,V,0,None,178,178,0,None,1,,,0,178,178,178,506.11724759999197,,,,,,,,,,,506.1034139000112,506.11724759999197,506.11724759999197,506.30042330001015,506.3166790000105,508.1019847000134,None,1,,,,000012,001,2024-10-09_13h27.02.247,cpt_test,2024.2.2,60.098826514216384,2024-10-09 13h30.40.328627 -0600,
180,M,0,None,179,179,0,None,1,,,0,179,179,179,508.1155024000036,,,,,,,,,,,508.10217610001564,508.1155024000036,508.1155024000036,508.31495619998896,508.31495619998896,510.11626840001554,None,1,,,,000012,001,2024-10-09_13h27.02.247,cpt_test,2024.2.2,60.098826514216384,2024-10-09 13h30.40.328627 -0600,
181,P,0,None,180,180,0,None,1,,,0,180,180,180,510.13080290000653,,,,,,,,,,,510.11642330000177,510.13080290000653,510.13080290000653,510.3137878999987,510.33032529999036,512.1154569000064,None,1,,,,000012,001,2024-10-09_13h27.02.247,cpt_test,2024.2.2,60.098826514216384,2024-10-09 13h30.40.328627 -0600,
182,K,0,None,181,181,0,None,1,,,0,181,181,181,512.1290224000113,,,,,,,,,,,512.115640700009,512.1290224000113,512.1290224000113,512.3122025000048,512.328388199996,514.1124153000128,None,1,,,,000012,001,2024-10-09_13h27.02.247,cpt_test,2024.2.2,60.098826514216384,2024-10-09 13h30.40.328627 -0600,
183,V,0,None,182,182,0,None,1,,,0,182,182,182,514.1275398000143,,,,,,,,,,,514.1125623999978,514.1275398000143,514.1275398000143,514.3104681000113,514.3267982999969,516.112638199993,None,1,,,,000012,001,2024-10-09_13h27.02.247,cpt_test,2024.2.2,60.098826514216384,2024-10-09 13h30.40.328627 -0600,
184,G,0,None,183,183,0,None,1,,,0,183,183,183,516.1255905000144,,,,,,,,,,,516.1128546000109,516.1255905000144,516.1255905000144,516.3091264000104,516.3254078000027,518.1048888000078,None,1,,,,000012,001,2024-10-09_13h27.02.247,cpt_test,2024.2.2,60.098826514216384,2024-10-09 13h30.40.328627 -0600,
185,L,0,None,184,184,0,None,1,,,0,184,184,184,518.1164809000038,,,,,,,,,,,518.1050771000155,518.1164809000038,518.1164809000038,518.2972492999979,518.3242284999869,520.1073206000146,None,1,,,520.1048733000061,000012,001,2024-10-09_13h27.02.247,cpt_test,2024.2.2,60.098826514216384,2024-10-09 13h30.40.328627 -0600,
186,Q,0,None,185,185,0,None,1,,,0,185,185,185,520.1225586000073,,,,,,,,,,,520.1074620000145,520.1225586000073,520.1225586000073,520.3050113999925,520.3214161999931,522.1056424000126,None,1,,,,000012,001,2024-10-09_13h27.02.247,cpt_test,2024.2.2,60.098826514216384,2024-10-09 13h30.40.328627 -0600,
187,N,0,None,186,186,0,None,1,,,0,186,186,186,522.1205176000076,,,,,,,,,,,522.1057803000149,522.1205176000076,522.1205176000076,522.3034453,522.3198087000055,524.1047759999929,None,1,,,,000012,001,2024-10-09_13h27.02.247,cpt_test,2024.2.2,60.098826514216384,2024-10-09 13h30.40.328627 -0600,
188,K,0,None,187,187,0,None,1,,,0,187,187,187,524.119308399997,,,,,,,,,,,524.104924299987,524.119308399997,524.119308399997,524.3027407999907,524.3191115999944,526.1049477999914,None,1,,,,000012,001,2024-10-09_13h27.02.247,cpt_test,2024.2.2,60.098826514216384,2024-10-09 13h30.40.328627 -0600,
189,C,0,None,188,188,0,None,1,,,0,188,188,188,526.1175019000075,,,,,,,,,,,526.1051881999883,526.1175019000075,526.1175019000075,526.3004867999989,526.3169762000034,528.1025376000034,None,1,,,,000012,001,2024-10-09_13h27.02.247,cpt_test,2024.2.2,60.098826514216384,2024-10-09 13h30.40.328627 -0600,
190,Z,0,None,189,189,0,None,1,,,0,189,189,189,528.1157499999972,,,,,,,,,,,528.1027378000144,528.1157499999972,528.1157499999972,528.3151974999928,528.3151974999928,530.117058600008,None,1,,,,000012,001,2024-10-09_13h27.02.247,cpt_test,2024.2.2,60.098826514216384,2024-10-09 13h30.40.328627 -0600,
191,I,0,None,190,190,0,None,1,,,0,190,190,190,530.1306677999964,,,,,,,,,,,530.1172313000134,530.1306677999964,530.1306677999964,530.3138176999928,530.3303754999943,532.1160582999873,None,1,,,,000012,001,2024-10-09_13h27.02.247,cpt_test,2024.2.2,60.098826514216384,2024-10-09 13h30.40.328627 -0600,
192,J,0,None,191,191,0,None,1,,,0,191,191,191,532.1290928999952,,,,,,,,,,,532.1162839999888,532.1290928999952,532.1290928999952,532.3123029000126,532.3286246999924,534.113705900003,None,1,,,,000012,001,2024-10-09_13h27.02.247,cpt_test,2024.2.2,60.098826514216384,2024-10-09 13h30.40.328627 -0600,
193,X,1,x,192,192,0,x,1,0.620545600017067,0.25189459999091923,0,192,192,192,534.1276417000045,,,,,,,,,,,534.1138745000062,534.1276417000045,534.1276417000045,534.310922100005,534.3270067000121,536.1120687999937,x,1,0.620545600017067,0.25189459999091923,,000012,001,2024-10-09_13h27.02.247,cpt_test,2024.2.2,60.098826514216384,2024-10-09 13h30.40.328627 -0600,
194,E,0,None,193,193,0,None,1,,,0,193,193,193,536.1258675999998,,,,,,,,,,,536.1122685000009,536.1258675999998,536.1258675999998,536.3090917000081,536.3252967000008,538.1107803999912,None,1,,,,000012,001,2024-10-09_13h27.02.247,cpt_test,2024.2.2,60.098826514216384,2024-10-09 13h30.40.328627 -0600,
195,X,1,x,194,194,0,x,1,0.5398535999993328,0.23712830001022667,0,194,194,194,538.1241499999887,,,,,,,,,,,538.1109801999992,538.1241499999887,538.1241499999887,538.3074458999909,538.3236254999938,540.1090205000073,x,1,0.5398535999993328,0.23712830001022667,,000012,001,2024-10-09_13h27.02.247,cpt_test,2024.2.2,60.098826514216384,2024-10-09 13h30.40.328627 -0600,
196,X,1,x,195,195,0,x,1,0.5340630999999121,0.21020139998290688,0,195,195,195,540.1225410999905,,,,,,,,,,,540.1092135999934,540.1225410999905,540.1225410999905,540.3053614000091,540.3219361999945,542.1071164000023,x,1,0.5340630999999121,0.21020139998290688,,000012,001,2024-10-09_13h27.02.247,cpt_test,2024.2.2,60.098826514216384,2024-10-09 13h30.40.328627 -0600,
197,O,0,None,196,196,0,None,1,,,0,196,196,196,542.1211417999875,,,,,,,,,,,542.107301400014,542.1211417999875,542.1211417999875,542.304171900003,542.3206418000045,544.1056822999963,None,1,,,,000012,001,2024-10-09_13h27.02.247,cpt_test,2024.2.2,60.098826514216384,2024-10-09 13h30.40.328627 -0600,
198,X,1,x,197,197,0,x,1,0.5175180999794975,0.2616136000142433,0,197,197,197,544.1195705000137,,,,,,,,,,,544.1058696999971,544.1195705000137,544.1195705000137,544.302411599987,544.318934400013,546.1044719000056,x,1,0.5175180999794975,0.2616136000142433,,000012,001,2024-10-09_13h27.02.247,cpt_test,2024.2.2,60.098826514216384,2024-10-09 13h30.40.328627 -0600,
199,T,0,None,198,198,0,None,1,,,0,198,198,198,546.1176554000122,,,,,,,,,,,546.1047042999999,546.1176554000122,546.1176554000122,546.300676200015,546.3172826000082,548.1034450000152,None,1,,,,000012,001,2024-10-09_13h27.02.247,cpt_test,2024.2.2,60.098826514216384,2024-10-09 13h30.40.328627 -0600,
200,X,1,x,199,199,0,x,1,0.7753978000255302,0.28398849998484366,0,199,199,199,548.1160234000126,,,,,,,,,,,548.1036869999953,548.1160234000126,548.1160234000126,548.3155641999911,548.3155641999911,550.100811500015,x,1,0.7753978000255302,0.28398849998484366,,000012,001,2024-10-09_13h27.02.247,cpt_test,2024.2.2,60.098826514216384,2024-10-09 13h30.40.328627 -0600,
201,L,0,None,200,200,0,None,1,,,0,200,200,200,550.1141276000126,,,,,,,,,,,550.101020800008,550.1141276000126,550.1141276000126,550.3140064000036,550.3140064000036,552.1159423000063,None,1,,,,000012,001,2024-10-09_13h27.02.247,cpt_test,2024.2.2,60.098826514216384,2024-10-09 13h30.40.328627 -0600,
