Number,letra,target,correctas,thisN,thisTrialN,thisRepN,respuesta.keys,respuesta.corr,respuesta.rt,respuesta.duration,trials.thisRepN,trials.thisTrialN,trials.thisN,trials.thisIndex,thisRow.t,notes,Ojos_abiertos.started,Abiertos.started,Ojos_abiertos.stopped,Ojos_cerrados.started,Cerrados.started,alert.started,Cerrados.stopped,alert.stopped,Ojos_cerrados.stopped,Test.started,prueba.started,respuesta.started,text.started,prueba.stopped,Test.stopped,trials.respuesta.keys,trials.respuesta.corr,trials.respuesta.rt,trials.respuesta.duration,text.stopped,participant,session,date,expName,psychopyVersion,frameRate,expStart,
,,,,,,,,,,,,,,,,,0.009059599993634038,0.01702790000126697,90.00614389999828,,,,,,,,,,,,,,,,,,000001,001,2024-10-08_12h34.06.986,cpt_test,2024.2.2,60.11533728956547,2024-10-08 12h38.29.222332 -0600,
,,,,,,,,,,,,,,,,,,,,90.01846120000118,90.02778740000213,150.00299016666057,150.0361714000028,150.2951494000008,150.1044843999989,,,,,,,,,,,,000001,001,2024-10-08_12h34.06.986,cpt_test,2024.2.2,60.11533728956547,2024-10-08 12h38.29.222332 -0600,
1,A,0,None,0,0,0,None,1,,,0,0,0,0,150.2951494000008,,,,,,,,,,,150.13242139999056,150.2951494000008,150.2951494000008,150.3070272000041,150.50398409999616,152.1038172999979,None,1,,,,000001,001,2024-10-08_12h34.06.986,cpt_test,2024.2.2,60.11533728956547,2024-10-08 12h38.29.222332 -0600,
2,R,0,None,1,1,0,None,1,,,0,1,1,1,152.12181070000224,,,,,,,,,,,152.10395799999242,152.12181070000224,152.12181070000224,152.30118510000466,152.33433309999236,154.1020630999992,None,1,,,,000001,001,2024-10-08_12h34.06.986,cpt_test,2024.2.2,60.11533728956547,2024-10-08 12h38.29.222332 -0600,
3,L,0,None,2,2,0,None,1,,,0,2,2,2,154.11963410000317,,,,,,,,,,,154.10222439999052,154.11963410000317,154.11963410000317,154.29951489999075,154.33248060000187,156.10137589999067,None,1,,,,000001,001,2024-10-08_12h34.06.986,cpt_test,2024.2.2,60.11533728956547,2024-10-08 12h38.29.222332 -0600,
4,X,1,x,3,3,0,x,1,0.4478318000037689,0.14029719999234658,0,3,3,3,156.12024390000443,,,,,,,,,,,156.10158079999383,156.12024390000443,156.12024390000443,156.31443600000057,156.33092779999424,158.11716209999577,x,1,0.4478318000037689,0.14029719999234658,,000001,001,2024-10-08_12h34.06.986,cpt_test,2024.2.2,60.11533728956547,2024-10-08 12h38.29.222332 -0600,
5,O,0,None,4,4,0,None,1,,,0,4,4,4,158.1360619999905,,,,,,,,,,,158.1174752999941,158.1360619999905,158.1360619999905,158.3130605000042,158.34583890000067,160.11442939999688,None,1,,,,000001,001,2024-10-08_12h34.06.986,cpt_test,2024.2.2,60.11533728956547,2024-10-08 12h38.29.222332 -0600,
6,G,0,None,5,5,0,None,1,,,0,5,5,5,160.1299430999934,,,,,,,,,,,160.1146168999985,160.1299430999934,160.1299430999934,160.31112869999197,160.34445770000457,162.11207849999482,None,1,,,,000001,001,2024-10-08_12h34.06.986,cpt_test,2024.2.2,60.11533728956547,2024-10-08 12h38.29.222332 -0600,
7,P,0,None,6,6,0,None,1,,,0,6,6,6,162.12736430000223,,,,,,,,,,,162.1122236999945,162.12736430000223,162.12736430000223,162.3094420999987,162.3424292999989,164.11108410000452,None,1,,,,000001,001,2024-10-08_12h34.06.986,cpt_test,2024.2.2,60.11533728956547,2024-10-08 12h38.29.222332 -0600,
8,X,1,x,7,7,0,x,1,0.4228510999964783,0.18221980000089388,0,7,7,7,164.12463550000393,,,,,,,,,,,164.1112831999926,164.12463550000393,164.12463550000393,164.30828529999417,164.324243199997,166.10974099999294,x,1,0.4228510999964783,0.18221980000089388,,000001,001,2024-10-08_12h34.06.986,cpt_test,2024.2.2,60.11533728956547,2024-10-08 12h38.29.222332 -0600,
9,X,1,x,8,8,0,x,1,0.47601250000298023,0.1391384000016842,0,8,8,8,166.12323579999793,,,,,,,,,,,166.10994359999313,166.12323579999793,166.12323579999793,166.30639260000316,166.32263409999723,168.10722059999534,x,1,0.47601250000298023,0.1391384000016842,,000001,001,2024-10-08_12h34.06.986,cpt_test,2024.2.2,60.11533728956547,2024-10-08 12h38.29.222332 -0600,
10,Z,0,None,9,9,0,None,1,,,0,9,9,9,168.12337889999617,,,,,,,,,,,168.1073888999963,168.12337889999617,168.12337889999617,168.30445470000268,168.33797839999897,170.10541499999817,None,1,,,,000001,001,2024-10-08_12h34.06.986,cpt_test,2024.2.2,60.11533728956547,2024-10-08 12h38.29.222332 -0600,
11,I,0,None,10,10,0,None,1,,,0,10,10,10,170.12085199999274,,,,,,,,,,,170.10556460000225,170.12085199999274,170.12085199999274,170.30289069999708,170.3361059000017,172.10391259999597,None,1,,,,000001,001,2024-10-08_12h34.06.986,cpt_test,2024.2.2,60.11533728956547,2024-10-08 12h38.29.222332 -0600,
12,D,0,None,11,11,0,None,1,,,0,11,11,11,172.12180429999717,,,,,,,,,,,172.104056199998,172.12180429999717,172.12180429999717,172.30155409999134,172.3344938999944,174.10255229999893,None,1,,,,000001,001,2024-10-08_12h34.06.986,cpt_test,2024.2.2,60.11533728956547,2024-10-08 12h38.29.222332 -0600,
13,X,1,x,12,12,0,x,1,0.27972789999330416,0.17753800000355113,0,12,12,12,174.11659799999325,,,,,,,,,,,174.1027241999982,174.11659799999325,174.11659799999325,174.29990949999774,174.31619440000213,176.1011986999947,x,1,0.27972789999330416,0.17753800000355113,,000001,001,2024-10-08_12h34.06.986,cpt_test,2024.2.2,60.11533728956547,2024-10-08 12h38.29.222332 -0600,
14,Y,0,None,13,13,0,None,1,,,0,13,13,13,176.1203203000041,,,,,,,,,,,176.1014040000009,176.1203203000041,176.1203203000041,176.3145011000015,176.33132399999886,178.11571009999898,None,1,,,,000001,001,2024-10-08_12h34.06.986,cpt_test,2024.2.2,60.11533728956547,2024-10-08 12h38.29.222332 -0600,
15,X,1,x,14,14,0,x,1,0.4642924000072526,0.16769729999941774,0,14,14,14,178.12996009999188,,,,,,,,,,,178.115864899999,178.12996009999188,178.12996009999188,178.31337780000467,178.3297467999946,180.1148935999954,x,1,0.4642924000072526,0.16769729999941774,,000001,001,2024-10-08_12h34.06.986,cpt_test,2024.2.2,60.11533728956547,2024-10-08 12h38.29.222332 -0600,
16,X,1,x,15,15,0,x,1,0.4587181000097189,0.16671469999710098,0,15,15,15,180.1284530999983,,,,,,,,,,,180.1151036999945,180.1284530999983,180.1284530999983,180.31130430000485,180.3278963000048,182.11234900000272,x,1,0.4587181000097189,0.16671469999710098,,000001,001,2024-10-08_12h34.06.986,cpt_test,2024.2.2,60.11533728956547,2024-10-08 12h38.29.222332 -0600,
17,A,0,None,16,16,0,None,1,,,0,16,16,16,182.1265005000023,,,,,,,,,,,182.11250889999792,182.1265005000023,182.1265005000023,182.30965680000372,182.32625499999267,184.11146169999847,None,1,,,,000001,001,2024-10-08_12h34.06.986,cpt_test,2024.2.2,60.11533728956547,2024-10-08 12h38.29.222332 -0600,
18,J,0,None,17,17,0,None,1,,,0,17,17,17,184.13002009999764,,,,,,,,,,,184.11165049999545,184.13002009999764,184.13002009999764,184.30797290000191,184.3412221000035,186.10976059999666,None,1,,,,000001,001,2024-10-08_12h34.06.986,cpt_test,2024.2.2,60.11533728956547,2024-10-08 12h38.29.222332 -0600,
19,G,0,None,18,18,0,None,1,,,0,18,18,18,186.12336030000006,,,,,,,,,,,186.10996010000235,186.12336030000006,186.12336030000006,186.30658059999405,186.3229452999949,188.10853199999838,None,1,,,,000001,001,2024-10-08_12h34.06.986,cpt_test,2024.2.2,60.11533728956547,2024-10-08 12h38.29.222332 -0600,
20,X,1,x,19,19,0,x,1,0.29064400000788737,0.17632919999596197,0,19,19,19,188.12181070000224,,,,,,,,,,,188.1087480999995,188.12181070000224,188.12181070000224,188.3050063999981,188.32133449999674,190.10650149999128,x,1,0.29064400000788737,0.17632919999596197,,000001,001,2024-10-08_12h34.06.986,cpt_test,2024.2.2,60.11533728956547,2024-10-08 12h38.29.222332 -0600,
21,T,0,None,20,20,0,None,1,,,0,20,20,20,190.1247039000009,,,,,,,,,,,190.10671469999943,190.1247039000009,190.1247039000009,190.30350389999512,190.33630300000368,192.10505990000092,None,1,,,,000001,001,2024-10-08_12h34.06.986,cpt_test,2024.2.2,60.11533728956547,2024-10-08 12h38.29.222332 -0600,
22,S,0,None,21,21,0,None,1,,,0,21,21,21,192.12556669999321,,,,,,,,,,,192.10526830000163,192.12556669999321,192.12556669999321,192.30178120000346,192.33444249999593,194.10424050000438,None,1,,,,000001,001,2024-10-08_12h34.06.986,cpt_test,2024.2.2,60.11533728956547,2024-10-08 12h38.29.222332 -0600,
23,X,1,x,22,22,0,x,1,0.39905259999795817,0.19062870000198018,0,22,22,22,194.11663390000467,,,,,,,,,,,194.1045013999974,194.11663390000467,194.11663390000467,194.29990009999892,194.316439000002,196.1012669999909,x,1,0.39905259999795817,0.19062870000198018,,000001,001,2024-10-08_12h34.06.986,cpt_test,2024.2.2,60.11533728956547,2024-10-08 12h38.29.222332 -0600,
24,S,0,None,23,23,0,None,1,,,0,23,23,23,196.11503420000372,,,,,,,,,,,196.10145170000033,196.11503420000372,196.11503420000372,196.31421499999124,196.31421499999124,198.11672160000307,None,1,,,198.1132915999915,000001,001,2024-10-08_12h34.06.986,cpt_test,2024.2.2,60.11533728956547,2024-10-08 12h38.29.222332 -0600,
25,G,0,None,24,24,0,None,1,,,0,24,24,24,198.13003329999628,,,,,,,,,,,198.1169230999949,198.13003329999628,198.13003329999628,198.31351670000004,198.3294184999977,200.11511739999696,None,1,,,,000001,001,2024-10-08_12h34.06.986,cpt_test,2024.2.2,60.11533728956547,2024-10-08 12h38.29.222332 -0600,
26,O,0,None,25,25,0,None,1,,,0,25,25,25,200.12839610000083,,,,,,,,,,,200.11532080000325,200.12839610000083,200.12839610000083,200.3116180999932,200.3279351999954,202.11366799999087,None,1,,,,000001,001,2024-10-08_12h34.06.986,cpt_test,2024.2.2,60.11533728956547,2024-10-08 12h38.29.222332 -0600,
27,P,0,None,26,26,0,None,1,,,0,26,26,26,202.1266281999997,,,,,,,,,,,202.11389670000062,202.1266281999997,202.1266281999997,202.3101930999983,202.32644819999405,204.11216589999094,None,1,,,,000001,001,2024-10-08_12h34.06.986,cpt_test,2024.2.2,60.11533728956547,2024-10-08 12h38.29.222332 -0600,
28,Z,0,None,27,27,0,None,1,,,0,27,27,27,204.12525840000308,,,,,,,,,,,204.11238249999587,204.12525840000308,204.12525840000308,204.30957129999297,204.3252802999923,206.10902059999353,None,1,,,,000001,001,2024-10-08_12h34.06.986,cpt_test,2024.2.2,60.11533728956547,2024-10-08 12h38.29.222332 -0600,
29,X,1,x,28,28,0,x,1,0.344395699998131,0.1901125000003958,0,28,28,28,206.123531499994,,,,,,,,,,,206.10917219999828,206.123531499994,206.123531499994,206.30683259999205,206.3231175999972,208.10833190000267,x,1,0.344395699998131,0.1901125000003958,,000001,001,2024-10-08_12h34.06.986,cpt_test,2024.2.2,60.11533728956547,2024-10-08 12h38.29.222332 -0600,
30,I,0,None,29,29,0,None,1,,,0,29,29,29,208.12189989999752,,,,,,,,,,,208.10853779999889,208.12189989999752,208.12189989999752,208.3049578999926,208.32158020000497,210.10651689999213,None,1,,,,000001,001,2024-10-08_12h34.06.986,cpt_test,2024.2.2,60.11533728956547,2024-10-08 12h38.29.222332 -0600,
31,F,0,None,30,30,0,None,1,,,0,30,30,30,210.1255142000009,,,,,,,,,,,210.10669259999122,210.1255142000009,210.1255142000009,210.30371749999176,210.3367075999995,212.10413579999295,None,1,,,,000001,001,2024-10-08_12h34.06.986,cpt_test,2024.2.2,60.11533728956547,2024-10-08 12h38.29.222332 -0600,
32,M,0,None,31,31,0,None,1,,,0,31,31,31,212.1238108999969,,,,,,,,,,,212.1042921000044,212.1238108999969,212.1238108999969,212.30184149999695,212.33492269999988,214.1029775999923,None,1,,,,000001,001,2024-10-08_12h34.06.986,cpt_test,2024.2.2,60.11533728956547,2024-10-08 12h38.29.222332 -0600,
33,T,0,None,32,32,0,None,1,,,0,32,32,32,214.11713929999678,,,,,,,,,,,214.1031476999924,214.11713929999678,214.11713929999678,214.3002536999993,214.31660730000294,216.10173809999833,None,1,,,,000001,001,2024-10-08_12h34.06.986,cpt_test,2024.2.2,60.11533728956547,2024-10-08 12h38.29.222332 -0600,
34,A,0,None,33,33,0,None,1,,,0,33,33,33,216.11542809999082,,,,,,,,,,,216.10194159999082,216.11542809999082,216.11542809999082,216.3148183000012,216.3148183000012,218.11687319999328,None,1,,,,000001,001,2024-10-08_12h34.06.986,cpt_test,2024.2.2,60.11533728956547,2024-10-08 12h38.29.222332 -0600,
35,E,0,None,34,34,0,None,1,,,0,34,34,34,218.13489849999314,,,,,,,,,,,218.11708119999093,218.13489849999314,218.13489849999314,218.3138118999923,218.34668509999756,220.11488979999558,None,1,,,,000001,001,2024-10-08_12h34.06.986,cpt_test,2024.2.2,60.11533728956547,2024-10-08 12h38.29.222332 -0600,
36,X,1,x,35,35,0,x,1,0.5437278999888804,0.19674559999839403,0,35,35,35,220.1287350999919,,,,,,,,,,,220.1150651999924,220.1287350999919,220.1287350999919,220.31175839999923,220.32856449999963,222.11384669999825,x,1,0.5437278999888804,0.19674559999839403,,000001,001,2024-10-08_12h34.06.986,cpt_test,2024.2.2,60.11533728956547,2024-10-08 12h38.29.222332 -0600,
37,A,0,None,36,36,0,None,1,,,0,36,36,36,222.12721969999257,,,,,,,,,,,222.11406100000022,222.12721969999257,222.12721969999257,222.3104622999963,222.32675229999586,224.11066160000337,None,1,,,,000001,001,2024-10-08_12h34.06.986,cpt_test,2024.2.2,60.11533728956547,2024-10-08 12h38.29.222332 -0600,
38,S,0,None,37,37,0,None,1,,,0,37,37,37,224.12527570000384,,,,,,,,,,,224.11080739999306,224.12527570000384,224.12527570000384,224.30867549999675,224.3251290999906,226.11049199999252,None,1,,,,000001,001,2024-10-08_12h34.06.986,cpt_test,2024.2.2,60.11533728956547,2024-10-08 12h38.29.222332 -0600,
39,U,0,None,38,38,0,None,1,,,0,38,38,38,226.12803969999368,,,,,,,,,,,226.1107023999939,226.12803969999368,226.12803969999368,226.30668719999085,226.34004349999304,228.108524700001,None,1,,,,000001,001,2024-10-08_12h34.06.986,cpt_test,2024.2.2,60.11533728956547,2024-10-08 12h38.29.222332 -0600,
40,U,0,None,39,39,0,None,1,,,0,39,39,39,228.12198369999533,,,,,,,,,,,228.10872380000365,228.12198369999533,228.12198369999533,228.30520550000074,228.32180099999823,230.1067752999952,None,1,,,,000001,001,2024-10-08_12h34.06.986,cpt_test,2024.2.2,60.11533728956547,2024-10-08 12h38.29.222332 -0600,
41,Q,0,None,40,40,0,None,1,,,0,40,40,40,230.12588870000036,,,,,,,,,,,230.10695159999887,230.12588870000036,230.12588870000036,230.30378889999702,230.3367636000039,232.1044705999957,None,1,,,,000001,001,2024-10-08_12h34.06.986,cpt_test,2024.2.2,60.11533728956547,2024-10-08 12h38.29.222332 -0600,
42,E,0,None,41,41,0,None,1,,,0,41,41,41,232.11903479999455,,,,,,,,,,,232.10463190000155,232.11903479999455,232.11903479999455,232.3018596000038,232.31855039999937,234.10317780000332,None,1,,,,000001,001,2024-10-08_12h34.06.986,cpt_test,2024.2.2,60.11533728956547,2024-10-08 12h38.29.222332 -0600,
43,B,0,None,42,42,0,None,1,,,0,42,42,42,234.1224685999914,,,,,,,,,,,234.10335039999336,234.1224685999914,234.1224685999914,234.30055440000433,234.33348289999412,236.1020212000003,None,1,,,,000001,001,2024-10-08_12h34.06.986,cpt_test,2024.2.2,60.11533728956547,2024-10-08 12h38.29.222332 -0600,
44,O,0,None,43,43,0,None,1,,,0,43,43,43,236.1155568999966,,,,,,,,,,,236.1022135999956,236.1155568999966,236.1155568999966,236.31521069999144,236.31521069999144,238.116598099994,None,1,,,,000001,001,2024-10-08_12h34.06.986,cpt_test,2024.2.2,60.11533728956547,2024-10-08 12h38.29.222332 -0600,
45,E,0,None,44,44,0,None,1,,,0,44,44,44,238.13052969999262,,,,,,,,,,,238.11677829999826,238.13052969999262,238.13052969999262,238.31394880000153,238.33018879999872,240.11487629999465,None,1,,,,000001,001,2024-10-08_12h34.06.986,cpt_test,2024.2.2,60.11533728956547,2024-10-08 12h38.29.222332 -0600,
46,F,0,None,45,45,0,None,1,,,0,45,45,45,240.12899430000107,,,,,,,,,,,240.1150415000011,240.12899430000107,240.12899430000107,240.312153699997,240.32815610000398,242.11308650000137,None,1,,,,000001,001,2024-10-08_12h34.06.986,cpt_test,2024.2.2,60.11533728956547,2024-10-08 12h38.29.222332 -0600,
47,V,0,None,46,46,0,None,1,,,0,46,46,46,242.13129389999085,,,,,,,,,,,242.11324179999065,242.13129389999085,242.13129389999085,242.3104708000028,242.34363380000286,244.11149319999095,None,1,,,,000001,001,2024-10-08_12h34.06.986,cpt_test,2024.2.2,60.11533728956547,2024-10-08 12h38.29.222332 -0600,
48,X,1,x,47,47,0,x,1,0.5502224999945611,0.1950762000051327,0,47,47,47,244.12545569999202,,,,,,,,,,,244.11165679999976,244.12545569999202,244.12545569999202,244.30880030000117,244.32519849999517,246.10980959999142,x,1,0.5502224999945611,0.1950762000051327,,000001,001,2024-10-08_12h34.06.986,cpt_test,2024.2.2,60.11533728956547,2024-10-08 12h38.29.222332 -0600,
49,X,1,x,48,48,0,x,1,0.5386626999970758,0.1859453999932157,0,48,48,48,246.12418919999618,,,,,,,,,,,246.10998179999297,246.12418919999618,246.12418919999618,246.30701740000222,246.3235849000048,248.10825849999674,x,1,0.5386626999970758,0.1859453999932157,,000001,001,2024-10-08_12h34.06.986,cpt_test,2024.2.2,60.11533728956547,2024-10-08 12h38.29.222332 -0600,
50,C,0,None,49,49,0,None,1,,,0,49,49,49,248.12668269999267,,,,,,,,,,,248.10844850000285,248.12668269999267,248.12668269999267,248.3056043999968,248.33831059999648,250.1063451999944,None,1,,,,000001,001,2024-10-08_12h34.06.986,cpt_test,2024.2.2,60.11533728956547,2024-10-08 12h38.29.222332 -0600,
51,M,0,None,50,50,0,None,1,,,0,50,50,50,250.12067560000287,,,,,,,,,,,250.10650229999737,250.12067560000287,250.12067560000287,250.30425909999758,250.32017160000396,252.10529829999723,None,1,,,,000001,001,2024-10-08_12h34.06.986,cpt_test,2024.2.2,60.11533728956547,2024-10-08 12h38.29.222332 -0600,
52,D,0,None,51,51,0,None,1,,,0,51,51,51,252.11901519999083,,,,,,,,,,,252.1054742999986,252.11901519999083,252.11901519999083,252.30232849999447,252.31864959999803,254.10317780000332,None,1,,,,000001,001,2024-10-08_12h34.06.986,cpt_test,2024.2.2,60.11533728956547,2024-10-08 12h38.29.222332 -0600,
53,X,1,x,52,52,0,x,1,0.5700307999941288,0.18745769999804907,0,52,52,52,254.11726729999646,,,,,,,,,,,254.1033349999925,254.11726729999646,254.11726729999646,254.30072230000223,254.31692430000112,256.1014181999926,x,1,0.5700307999941288,0.18745769999804907,,000001,001,2024-10-08_12h34.06.986,cpt_test,2024.2.2,60.11533728956547,2024-10-08 12h38.29.222332 -0600,
54,K,0,None,53,53,0,None,1,,,0,53,53,53,256.1196474000026,,,,,,,,,,,256.10157450000406,256.1196474000026,256.1196474000026,256.31521449999127,256.3318006999907,258.1163118999975,None,1,,,,000001,001,2024-10-08_12h34.06.986,cpt_test,2024.2.2,60.11533728956547,2024-10-08 12h38.29.222332 -0600,
55,X,1,x,54,54,0,x,1,0.486736100006965,0.19105059999856167,0,54,54,54,258.13057670000126,,,,,,,,,,,258.11646160000237,258.13057670000126,258.13057670000126,258.31364680000115,258.33022309999797,260.1147820000042,x,1,0.486736100006965,0.19105059999856167,,000001,001,2024-10-08_12h34.06.986,cpt_test,2024.2.2,60.11533728956547,2024-10-08 12h38.29.222332 -0600,
56,N,0,None,55,55,0,None,1,,,0,55,55,55,260.1330658999941,,,,,,,,,,,260.1149393999949,260.1330658999941,260.1330658999941,260.31223399999726,260.34520599999814,262.1131472999987,None,1,,,,000001,001,2024-10-08_12h34.06.986,cpt_test,2024.2.2,60.11533728956547,2024-10-08 12h38.29.222332 -0600,
57,M,0,None,56,56,0,None,1,,,0,56,56,56,262.1274141000031,,,,,,,,,,,262.11330250000174,262.1274141000031,262.1274141000031,262.3104319999984,262.3272777999955,264.1117130999919,None,1,,,,000001,001,2024-10-08_12h34.06.986,cpt_test,2024.2.2,60.11533728956547,2024-10-08 12h38.29.222332 -0600,
58,X,1,x,57,57,0,x,1,0.47821850000764243,0.21425079999607988,0,57,57,57,264.1257442999922,,,,,,,,,,,264.11188630000106,264.1257442999922,264.1257442999922,264.30894940000144,264.32552329999453,266.10990769999626,x,1,0.47821850000764243,0.21425079999607988,,000001,001,2024-10-08_12h34.06.986,cpt_test,2024.2.2,60.11533728956547,2024-10-08 12h38.29.222332 -0600,
59,F,0,None,58,58,0,None,1,,,0,58,58,58,266.1241602999944,,,,,,,,,,,266.1100846000045,266.1241602999944,266.1241602999944,266.30752689999645,266.32374379999237,268.10824289999437,None,1,,,,000001,001,2024-10-08_12h34.06.986,cpt_test,2024.2.2,60.11533728956547,2024-10-08 12h38.29.222332 -0600,
60,A,0,None,59,59,0,None,1,,,0,59,59,59,268.12272739999753,,,,,,,,,,,268.108401599995,268.12272739999753,268.12272739999753,268.3054652999999,268.32203239999944,270.10676769999554,None,1,,,,000001,001,2024-10-08_12h34.06.986,cpt_test,2024.2.2,60.11533728956547,2024-10-08 12h38.29.222332 -0600,
61,X,1,x,60,60,0,x,1,0.7072650999907637,0.19080749999557156,0,60,60,60,270.1208435000008,,,,,,,,,,,270.10692949999066,270.1208435000008,270.1208435000008,270.3039990999969,270.32045630000357,272.10493089999363,x,1,0.7072650999907637,0.19080749999557156,,000001,001,2024-10-08_12h34.06.986,cpt_test,2024.2.2,60.11533728956547,2024-10-08 12h38.29.222332 -0600,
62,V,0,None,61,61,0,None,1,,,0,61,61,61,272.1191223999922,,,,,,,,,,,272.10508700000355,272.1191223999922,272.1191223999922,272.3026414999913,272.31881189999694,274.10307539999485,None,1,,,,000001,001,2024-10-08_12h34.06.986,cpt_test,2024.2.2,60.11533728956547,2024-10-08 12h38.29.222332 -0600,
63,U,0,None,62,62,0,None,1,,,0,62,62,62,274.1173964999907,,,,,,,,,,,274.10322720000113,274.1173964999907,274.1173964999907,274.30078669999784,274.3172820000036,276.1017547999945,None,1,,,,000001,001,2024-10-08_12h34.06.986,cpt_test,2024.2.2,60.11533728956547,2024-10-08 12h38.29.222332 -0600,
64,M,0,None,63,63,0,None,1,,,0,63,63,63,276.11607730000105,,,,,,,,,,,276.1019124000013,276.11607730000105,276.11607730000105,276.3155126999918,276.3155126999918,278.11675719999766,None,1,,,,000001,001,2024-10-08_12h34.06.986,cpt_test,2024.2.2,60.11533728956547,2024-10-08 12h38.29.222332 -0600,
65,X,1,x,64,64,0,x,1,0.43751020000490826,0.1963320999930147,0,64,64,64,278.13119839999126,,,,,,,,,,,278.116936099992,278.13119839999126,278.13119839999126,278.3142594999954,278.3304452000011,280.1148807999998,x,1,0.43751020000490826,0.1963320999930147,,000001,001,2024-10-08_12h34.06.986,cpt_test,2024.2.2,60.11533728956547,2024-10-08 12h38.29.222332 -0600,
66,A,0,None,65,65,0,None,1,,,0,65,65,65,280.12954339999123,,,,,,,,,,,280.1150454000017,280.12954339999123,280.12954339999123,280.3124869000021,280.3290074999968,282.11335359999794,None,1,,,,000001,001,2024-10-08_12h34.06.986,cpt_test,2024.2.2,60.11533728956547,2024-10-08 12h38.29.222332 -0600,
67,N,0,None,66,66,0,None,1,,,0,66,66,66,282.12762899999507,,,,,,,,,,,282.1135104999994,282.12762899999507,282.12762899999507,282.3106131999957,282.32716309999523,284.1118060000008,None,1,,,,000001,001,2024-10-08_12h34.06.986,cpt_test,2024.2.2,60.11533728956547,2024-10-08 12h38.29.222332 -0600,
68,H,0,None,67,67,0,None,1,,,0,67,67,67,284.1310874999908,,,,,,,,,,,284.111991400001,284.1310874999908,284.1310874999908,284.30940179999743,284.3423094000027,286.110179299998,None,1,,,,000001,001,2024-10-08_12h34.06.986,cpt_test,2024.2.2,60.11533728956547,2024-10-08 12h38.29.222332 -0600,
69,A,0,None,68,68,0,None,1,,,0,68,68,68,286.1245540999953,,,,,,,,,,,286.110328499999,286.1245540999953,286.1245540999953,286.3074778000009,286.32364000000234,288.10818519999157,None,1,,,,000001,001,2024-10-08_12h34.06.986,cpt_test,2024.2.2,60.11533728956547,2024-10-08 12h38.29.222332 -0600,
70,X,1,x,69,69,0,x,1,0.5744479999993928,0.209518499992555,0,69,69,69,288.1227932000038,,,,,,,,,,,288.1083423999953,288.1227932000038,288.1227932000038,288.3060497999977,288.3220688000001,290.1064977999922,x,1,0.5744479999993928,0.209518499992555,,000001,001,2024-10-08_12h34.06.986,cpt_test,2024.2.2,60.11533728956547,2024-10-08 12h38.29.222332 -0600,
71,F,0,None,70,70,0,None,1,,,0,70,70,70,290.12100119999377,,,,,,,,,,,290.10666279999714,290.12100119999377,290.12100119999377,290.3044227999926,290.32037950000085,292.1060193000012,None,1,,,,000001,001,2024-10-08_12h34.06.986,cpt_test,2024.2.2,60.11533728956547,2024-10-08 12h38.29.222332 -0600,
72,N,0,None,71,71,0,None,1,,,0,71,71,71,292.1194706999959,,,,,,,,,,,292.1062242999906,292.1194706999959,292.1194706999959,292.302491800001,292.31897690000187,294.10399139999936,None,1,,,,000001,001,2024-10-08_12h34.06.986,cpt_test,2024.2.2,60.11533728956547,2024-10-08 12h38.29.222332 -0600,
73,K,0,None,72,72,0,None,1,,,0,72,72,72,294.1178385999956,,,,,,,,,,,294.1041775000049,294.1178385999956,294.1178385999956,294.3010146000015,294.3174577000027,296.1027095000027,None,1,,,,000001,001,2024-10-08_12h34.06.986,cpt_test,2024.2.2,60.11533728956547,2024-10-08 12h38.29.222332 -0600,
74,Y,0,None,73,73,0,None,1,,,0,73,73,73,296.11618250000174,,,,,,,,,,,296.10290579999855,296.11618250000174,296.11618250000174,296.3157426999969,296.3157426999969,298.1009066999977,None,1,,,,000001,001,2024-10-08_12h34.06.986,cpt_test,2024.2.2,60.11533728956547,2024-10-08 12h38.29.222332 -0600,
75,Y,0,None,74,74,0,None,1,,,0,74,74,74,298.1144998999953,,,,,,,,,,,298.10109609999927,298.1144998999953,298.1144998999953,298.314037499993,298.314037499993,300.11519759999646,None,1,,,,000001,001,2024-10-08_12h34.06.986,cpt_test,2024.2.2,60.11533728956547,2024-10-08 12h38.29.222332 -0600,
76,R,0,None,75,75,0,None,1,,,0,75,75,75,300.12973119999515,,,,,,,,,,,300.1153412999993,300.12973119999515,300.12973119999515,300.31279789999826,300.3290219000046,302.11453799999435,None,1,,,,000001,001,2024-10-08_12h34.06.986,cpt_test,2024.2.2,60.11533728956547,2024-10-08 12h38.29.222332 -0600,
77,X,1,x,76,76,0,x,1,0.4290142000099877,0.2323976999905426,0,76,76,76,302.1281505999941,,,,,,,,,,,302.1147240999999,302.1281505999941,302.1281505999941,302.31087899999693,302.32722510000167,304.11245190000045,x,1,0.4290142000099877,0.2323976999905426,,000001,001,2024-10-08_12h34.06.986,cpt_test,2024.2.2,60.11533728956547,2024-10-08 12h38.29.222332 -0600,
78,R,0,None,77,77,0,None,1,,,0,77,77,77,304.12624679999135,,,,,,,,,,,304.1126380999922,304.12624679999135,304.12624679999135,304.30953210000007,304.32572710000386,306.1116609000019,None,1,,,,000001,001,2024-10-08_12h34.06.986,cpt_test,2024.2.2,60.11533728956547,2024-10-08 12h38.29.222332 -0600,
79,F,0,None,78,78,0,None,1,,,0,78,78,78,306.1243279999908,,,,,,,,,,,306.1118901000009,306.1243279999908,306.1243279999908,306.3077645000012,306.3241222999932,308.10992350000015,None,1,,,,000001,001,2024-10-08_12h34.06.986,cpt_test,2024.2.2,60.11533728956547,2024-10-08 12h38.29.222332 -0600,
80,K,0,None,79,79,0,None,1,,,0,79,79,79,308.12292609999713,,,,,,,,,,,308.11015300000145,308.12292609999713,308.12292609999713,308.30619629999273,308.322333899996,310.10759990000224,None,1,,,,000001,001,2024-10-08_12h34.06.986,cpt_test,2024.2.2,60.11533728956547,2024-10-08 12h38.29.222332 -0600,
81,O,0,None,80,80,0,None,1,,,0,80,80,80,310.1212622000021,,,,,,,,,,,310.1078053999954,310.1212622000021,310.1212622000021,310.30466490000254,310.32078219999676,312.10692839999683,None,1,,,,000001,001,2024-10-08_12h34.06.986,cpt_test,2024.2.2,60.11533728956547,2024-10-08 12h38.29.222332 -0600,
82,F,0,None,81,81,0,None,1,,,0,81,81,81,312.11960140000156,,,,,,,,,,,312.1071767999965,312.11960140000156,312.11960140000156,312.3028570000024,312.3191688999941,314.1042233999906,None,1,,,,000001,001,2024-10-08_12h34.06.986,cpt_test,2024.2.2,60.11533728956547,2024-10-08 12h38.29.222332 -0600,
83,F,0,None,82,82,0,None,1,,,0,82,82,82,314.11803019999934,,,,,,,,,,,314.1043972000043,314.11803019999934,314.11803019999934,314.3010942999972,314.31761820000247,316.10273070000403,None,1,,,,000001,001,2024-10-08_12h34.06.986,cpt_test,2024.2.2,60.11533728956547,2024-10-08 12h38.29.222332 -0600,
84,W,0,None,83,83,0,None,1,,,0,83,83,83,316.12293379999755,,,,,,,,,,,316.1029178000026,316.12293379999755,316.12293379999755,316.3164164000045,316.3325021999917,318.1009272999945,None,1,,,,000001,001,2024-10-08_12h34.06.986,cpt_test,2024.2.2,60.11533728956547,2024-10-08 12h38.29.222332 -0600,
85,X,1,x,84,84,0,x,1,0.5925767000007909,0.20859890000429004,0,84,84,84,318.1146783000004,,,,,,,,,,,318.10111809999216,318.1146783000004,318.1146783000004,318.31424479999987,318.31424479999987,320.1154477999953,x,1,0.5925767000007909,0.20859890000429004,,000001,001,2024-10-08_12h34.06.986,cpt_test,2024.2.2,60.11533728956547,2024-10-08 12h38.29.222332 -0600,
86,J,0,None,85,85,0,None,1,,,0,85,85,85,320.1296669000003,,,,,,,,,,,320.1156248000043,320.1296669000003,320.1296669000003,320.3126090000005,320.32910229999106,322.1144239999994,None,1,,,,000001,001,2024-10-08_12h34.06.986,cpt_test,2024.2.2,60.11533728956547,2024-10-08 12h38.29.222332 -0600,
87,N,0,None,86,86,0,None,1,,,0,86,86,86,322.12816269999894,,,,,,,,,,,322.1146284999995,322.12816269999894,322.12816269999894,322.3111610999913,322.32763590000104,324.11215600000287,None,1,,,,000001,001,2024-10-08_12h34.06.986,cpt_test,2024.2.2,60.11533728956547,2024-10-08 12h38.29.222332 -0600,
88,X,1,x,87,87,0,x,1,0.5279844999895431,0.1889357000036398,0,87,87,87,324.12657059999765,,,,,,,,,,,324.1123225999909,324.12657059999765,324.12657059999765,324.3095893999998,324.32591149999644,326.110692000002,x,1,0.5279844999895431,0.1889357000036398,,000001,001,2024-10-08_12h34.06.986,cpt_test,2024.2.2,60.11533728956547,2024-10-08 12h38.29.222332 -0600,
89,T,0,None,88,88,0,None,1,,,0,88,88,88,326.1249614999979,,,,,,,,,,,326.1108871000033,326.1249614999979,326.1249614999979,326.307842299997,326.3239690999908,328.1089229999925,None,1,,,,000001,001,2024-10-08_12h34.06.986,cpt_test,2024.2.2,60.11533728956547,2024-10-08 12h38.29.222332 -0600,
90,I,0,None,89,89,0,None,1,,,0,89,89,89,328.1229037000012,,,,,,,,,,,328.1091024999914,328.1229037000012,328.1229037000012,328.30625539999164,328.3229999000032,330.1077828999987,None,1,,,,000001,001,2024-10-08_12h34.06.986,cpt_test,2024.2.2,60.11533728956547,2024-10-08 12h38.29.222332 -0600,
91,P,0,None,90,90,0,None,1,,,0,90,90,90,330.1215285999933,,,,,,,,,,,330.10797090000415,330.1215285999933,330.1215285999933,330.3047030000016,330.3209637999971,332.105627500001,None,1,,,,000001,001,2024-10-08_12h34.06.986,cpt_test,2024.2.2,60.11533728956547,2024-10-08 12h38.29.222332 -0600,
92,X,1,x,91,91,0,x,1,0.43160689999058377,0.22861269999702927,0,91,91,91,332.1199454000016,,,,,,,,,,,332.1057787000027,332.1199454000016,332.1199454000016,332.30275780000375,332.3194109000033,334.10481530000106,x,1,0.43160689999058377,0.22861269999702927,,000001,001,2024-10-08_12h34.06.986,cpt_test,2024.2.2,60.11533728956547,2024-10-08 12h38.29.222332 -0600,
93,B,0,None,92,92,0,None,1,,,0,92,92,92,334.11817359999986,,,,,,,,,,,334.1050391000026,334.11817359999986,334.11817359999986,334.3013398000039,334.31765889999224,336.10253340000054,None,1,,,,000001,001,2024-10-08_12h34.06.986,cpt_test,2024.2.2,60.11533728956547,2024-10-08 12h38.29.222332 -0600,
94,M,0,None,93,93,0,None,1,,,0,93,93,93,336.11639209999703,,,,,,,,,,,336.10271049999574,336.11639209999703,336.11639209999703,336.2998731999978,336.31593569999677,338.1013252999983,None,1,,,,000001,001,2024-10-08_12h34.06.986,cpt_test,2024.2.2,60.11533728956547,2024-10-08 12h38.29.222332 -0600,
95,B,0,None,94,94,0,None,1,,,0,94,94,94,338.1150079999934,,,,,,,,,,,338.10151269999915,338.1150079999934,338.1150079999934,338.31448240000464,338.31448240000464,340.11662489999435,None,1,,,,000001,001,2024-10-08_12h34.06.986,cpt_test,2024.2.2,60.11533728956547,2024-10-08 12h38.29.222332 -0600,
96,I,0,None,95,95,0,None,1,,,0,95,95,95,340.12983999999415,,,,,,,,,,,340.1168189000018,340.12983999999415,340.12983999999415,340.31294909999997,340.32944719999796,342.11421379999956,None,1,,,,000001,001,2024-10-08_12h34.06.986,cpt_test,2024.2.2,60.11533728956547,2024-10-08 12h38.29.222332 -0600,
97,X,1,x,96,96,0,x,1,0.4011247999878833,0.2246895999996923,0,96,96,96,342.12805220000155,,,,,,,,,,,342.1143885999918,342.12805220000155,342.12805220000155,342.31113370000094,342.32760950000375,344.1123366999964,x,1,0.4011247999878833,0.2246895999996923,,000001,001,2024-10-08_12h34.06.986,cpt_test,2024.2.2,60.11533728956547,2024-10-08 12h38.29.222332 -0600,
98,J,0,None,97,97,0,None,1,,,0,97,97,97,344.1263822000037,,,,,,,,,,,344.1125141999946,344.1263822000037,344.1263822000037,344.3096805999958,344.3262747999979,346.1112664999964,None,1,,,,000001,001,2024-10-08_12h34.06.986,cpt_test,2024.2.2,60.11533728956547,2024-10-08 12h38.29.222332 -0600,
99,X,1,x,98,98,0,x,1,0.49134729999059346,0.23140560000319965,0,98,98,98,346.1247643999959,,,,,,,,,,,346.1114643000037,346.1247643999959,346.1247643999959,346.30791629999294,346.324549500001,348.1089876000042,x,1,0.49134729999059346,0.23140560000319965,,000001,001,2024-10-08_12h34.06.986,cpt_test,2024.2.2,60.11533728956547,2024-10-08 12h38.29.222332 -0600,
100,U,0,None,99,99,0,None,1,,,0,99,99,99,348.1231131999957,,,,,,,,,,,348.10915750000277,348.1231131999957,348.1231131999957,348.3066012999916,348.3227886999957,350.10732379999536,None,1,,,,000001,001,2024-10-08_12h34.06.986,cpt_test,2024.2.2,60.11533728956547,2024-10-08 12h38.29.222332 -0600,
101,D,0,None,100,100,0,None,1,,,0,100,100,100,350.121547200004,,,,,,,,,,,350.10746919999656,350.121547200004,350.121547200004,350.3048520000011,350.3211016999994,352.10607589999563,None,1,,,,000001,001,2024-10-08_12h34.06.986,cpt_test,2024.2.2,60.11533728956547,2024-10-08 12h38.29.222332 -0600,
102,X,1,x,101,101,0,x,1,0.4864384999964386,0.2114853000093717,0,101,101,101,352.1200078999973,,,,,,,,,,,352.1062566000037,352.1200078999973,352.1200078999973,352.3030715999921,352.31971159999375,354.104092900001,x,1,0.4864384999964386,0.2114853000093717,,000001,001,2024-10-08_12h34.06.986,cpt_test,2024.2.2,60.11533728956547,2024-10-08 12h38.29.222332 -0600,
103,X,1,x,102,102,0,x,1,0.527733700000681,0.21980530000291765,0,102,102,102,354.11849919999077,,,,,,,,,,,354.104259300002,354.11849919999077,354.11849919999077,354.3015535000013,354.317839299998,356.10243820000323,x,1,0.527733700000681,0.21980530000291765,,000001,001,2024-10-08_12h34.06.986,cpt_test,2024.2.2,60.11533728956547,2024-10-08 12h38.29.222332 -0600,
104,N,0,None,103,103,0,None,1,,,0,103,103,103,356.1166149999917,,,,,,,,,,,356.10261499999615,356.1166149999917,356.1166149999917,356.3001174999954,356.31624859999283,358.1009797000006,None,1,,,,000001,001,2024-10-08_12h34.06.986,cpt_test,2024.2.2,60.11533728956547,2024-10-08 12h38.29.222332 -0600,
105,U,0,None,104,104,0,None,1,,,0,104,104,104,358.11536409999826,,,,,,,,,,,358.1011349000037,358.11536409999826,358.11536409999826,358.31450819999736,358.31450819999736,360.1157395999908,None,1,,,,000001,001,2024-10-08_12h34.06.986,cpt_test,2024.2.2,60.11533728956547,2024-10-08 12h38.29.222332 -0600,
106,T,0,None,105,105,0,None,1,,,0,105,105,105,360.1301742999931,,,,,,,,,,,360.1159118999931,360.1301742999931,360.1301742999931,360.3130888000014,360.329519299994,362.1147165000002,None,1,,,,000001,001,2024-10-08_12h34.06.986,cpt_test,2024.2.2,60.11533728956547,2024-10-08 12h38.29.222332 -0600,
107,W,0,None,106,106,0,None,1,,,0,106,106,106,362.12863500000094,,,,,,,,,,,362.114897499996,362.12863500000094,362.12863500000094,362.3117191999918,362.3279684000008,364.1122747999907,None,1,,,,000001,001,2024-10-08_12h34.06.986,cpt_test,2024.2.2,60.11533728956547,2024-10-08 12h38.29.222332 -0600,
108,N,0,None,107,107,0,None,1,,,0,107,107,107,364.12689309999405,,,,,,,,,,,364.11243149999063,364.12689309999405,364.12689309999405,364.309825999997,364.3263095000002,366.1103221999947,None,1,,,,000001,001,2024-10-08_12h34.06.986,cpt_test,2024.2.2,60.11533728956547,2024-10-08 12h38.29.222332 -0600,
109,R,0,None,108,108,0,None,1,,,0,108,108,108,366.12500010000076,,,,,,,,,,,366.1104611999908,366.12500010000076,366.12500010000076,366.3084050000034,366.3248719999974,368.10949729999993,None,1,,,,000001,001,2024-10-08_12h34.06.986,cpt_test,2024.2.2,60.11533728956547,2024-10-08 12h38.29.222332 -0600,
110,X,1,x,109,109,0,x,1,0.557456499998807,0.22420339999371208,0,109,109,109,368.1234417999949,,,,,,,,,,,368.1096538999991,368.1234417999949,368.1234417999949,368.3066196,368.3229449999926,370.1075587999949,x,1,0.557456499998807,0.22420339999371208,,000001,001,2024-10-08_12h34.06.986,cpt_test,2024.2.2,60.11533728956547,2024-10-08 12h38.29.222332 -0600,
111,A,0,None,110,110,0,None,1,,,0,110,110,110,370.121985699996,,,,,,,,,,,370.1077282000042,370.121985699996,370.121985699996,370.30495659999724,370.32150259999617,372.10584049999306,None,1,,,,000001,001,2024-10-08_12h34.06.986,cpt_test,2024.2.2,60.11533728956547,2024-10-08 12h38.29.222332 -0600,
112,X,1,x,111,111,0,x,1,0.5290702000056626,0.20142689999192953,0,111,111,111,372.1203126000037,,,,,,,,,,,372.10600149999664,372.1203126000037,372.1203126000037,372.30323679999856,372.32001789999777,374.10384870000416,x,1,0.5290702000056626,0.20142689999192953,,000001,001,2024-10-08_12h34.06.986,cpt_test,2024.2.2,60.11533728956547,2024-10-08 12h38.29.222332 -0600,
113,G,0,None,112,112,0,None,1,,,0,112,112,112,374.11848859999736,,,,,,,,,,,374.10400720000325,374.11848859999736,374.11848859999736,374.30197749999934,374.31793319999997,376.1027696999954,None,1,,,,000001,001,2024-10-08_12h34.06.986,cpt_test,2024.2.2,60.11533728956547,2024-10-08 12h38.29.222332 -0600,
114,O,0,None,113,113,0,None,1,,,0,113,113,113,376.1168619999953,,,,,,,,,,,376.1029230999993,376.1168619999953,376.1168619999953,376.30021719999786,376.31727869999304,378.1009718999994,None,1,,,,000001,001,2024-10-08_12h34.06.986,cpt_test,2024.2.2,60.11533728956547,2024-10-08 12h38.29.222332 -0600,
115,U,0,None,114,114,0,None,1,,,0,114,114,114,378.11511349999637,,,,,,,,,,,378.10112140000274,378.11511349999637,378.11511349999637,378.3148572999926,378.3148572999926,380.1159978999931,None,1,,,,000001,001,2024-10-08_12h34.06.986,cpt_test,2024.2.2,60.11533728956547,2024-10-08 12h38.29.222332 -0600,
116,X,1,x,115,115,0,x,1,0.5755547000007937,0.23841730000276584,0,115,115,115,380.1303268000047,,,,,,,,,,,380.1161526999931,380.1303268000047,380.1303268000047,380.3132648000028,380.32968319999054,382.114313500002,x,1,0.5755547000007937,0.23841730000276584,,000001,001,2024-10-08_12h34.06.986,cpt_test,2024.2.2,60.11533728956547,2024-10-08 12h38.29.222332 -0600,
117,X,1,x,116,116,0,x,1,0.5517222000053152,0.23872470000060275,0,116,116,116,382.12848099999246,,,,,,,,,,,382.1144886999973,382.12848099999246,382.12848099999246,382.311858400004,382.32827270000416,384.1127150999964,x,1,0.5517222000053152,0.23872470000060275,,000001,001,2024-10-08_12h34.06.986,cpt_test,2024.2.2,60.11533728956547,2024-10-08 12h38.29.222332 -0600,
118,C,0,None,117,117,0,None,1,,,0,117,117,117,384.12722130000475,,,,,,,,,,,384.11287070000253,384.12722130000475,384.12722130000475,384.3103093999962,384.326418800003,386.1118553999986,None,1,,,,000001,001,2024-10-08_12h34.06.986,cpt_test,2024.2.2,60.11533728956547,2024-10-08 12h38.29.222332 -0600,
119,A,0,None,118,118,0,None,1,,,0,118,118,118,386.1251112000027,,,,,,,,,,,386.11206699999457,386.1251112000027,386.1251112000027,386.30863410000165,386.3249666000047,388.11025539999537,None,1,,,,000001,001,2024-10-08_12h34.06.986,cpt_test,2024.2.2,60.11533728956547,2024-10-08 12h38.29.222332 -0600,
120,X,1,x,119,119,0,x,1,0.5149462999979733,0.21391330000187736,0,119,119,119,388.12360569999146,,,,,,,,,,,388.11044029999175,388.12360569999146,388.12360569999146,388.30670629999076,388.3230077000044,390.10834999999497,x,1,0.5149462999979733,0.21391330000187736,,000001,001,2024-10-08_12h34.06.986,cpt_test,2024.2.2,60.11533728956547,2024-10-08 12h38.29.222332 -0600,
121,H,0,None,120,120,0,None,1,,,0,120,120,120,390.1219673000014,,,,,,,,,,,390.1085582999949,390.1219673000014,390.1219673000014,390.30523329999414,390.32145659999514,392.1059705999942,None,1,,,,000001,001,2024-10-08_12h34.06.986,cpt_test,2024.2.2,60.11533728956547,2024-10-08 12h38.29.222332 -0600,
122,M,0,None,121,121,0,None,1,,,0,121,121,121,392.1202673999942,,,,,,,,,,,392.10612309999124,392.1202673999942,392.1202673999942,392.30336750000424,392.31988969999657,394.10425390000455,None,1,,,,000001,001,2024-10-08_12h34.06.986,cpt_test,2024.2.2,60.11533728956547,2024-10-08 12h38.29.222332 -0600,
123,V,0,None,122,122,0,None,1,,,0,122,122,122,394.11896549999074,,,,,,,,,,,394.1044030000048,394.11896549999074,394.11896549999074,394.30218199999945,394.3183507999929,396.10294409999915,None,1,,,,000001,001,2024-10-08_12h34.06.986,cpt_test,2024.2.2,60.11533728956547,2024-10-08 12h38.29.222332 -0600,
124,K,0,None,123,123,0,None,1,,,0,123,123,123,396.1168875000003,,,,,,,,,,,396.1031418999919,396.1168875000003,396.1168875000003,396.300158500002,396.3168003000028,398.10171889999765,None,1,,,,000001,001,2024-10-08_12h34.06.986,cpt_test,2024.2.2,60.11533728956547,2024-10-08 12h38.29.222332 -0600,
125,G,0,None,124,124,0,None,1,,,0,124,124,124,398.1157024999993,,,,,,,,,,,398.1019055999932,398.1157024999993,398.1157024999993,398.3150697999954,398.3150697999954,400.1174163999967,None,1,,,,000001,001,2024-10-08_12h34.06.986,cpt_test,2024.2.2,60.11533728956547,2024-10-08 12h38.29.222332 -0600,
126,A,0,None,125,125,0,None,1,,,0,125,125,125,400.130516899997,,,,,,,,,,,400.11764799999946,400.130516899997,400.130516899997,400.31355859999894,400.3299677000032,402.1149316999945,None,1,,,,000001,001,2024-10-08_12h34.06.986,cpt_test,2024.2.2,60.11533728956547,2024-10-08 12h38.29.222332 -0600,
127,X,1,x,126,126,0,x,1,0.47500720000243746,0.24035219999495894,0,126,126,126,402.12867059999553,,,,,,,,,,,402.11510629999975,402.12867059999553,402.12867059999553,402.312093799992,402.32834160000493,404.11297119999654,x,1,0.47500720000243746,0.24035219999495894,,000001,001,2024-10-08_12h34.06.986,cpt_test,2024.2.2,60.11533728956547,2024-10-08 12h38.29.222332 -0600,
128,N,0,None,127,127,0,None,1,,,0,127,127,127,404.12733980000485,,,,,,,,,,,404.1131371999945,404.12733980000485,404.12733980000485,404.31037809999543,404.32670730000245,406.1111940999981,None,1,,,,000001,001,2024-10-08_12h34.06.986,cpt_test,2024.2.2,60.11533728956547,2024-10-08 12h38.29.222332 -0600,
129,Y,0,None,128,128,0,None,1,,,0,128,128,128,406.12568899999314,,,,,,,,,,,406.1113444999937,406.12568899999314,406.12568899999314,406.30888309999136,406.32516579999356,408.1091432999965,None,1,,,,000001,001,2024-10-08_12h34.06.986,cpt_test,2024.2.2,60.11533728956547,2024-10-08 12h38.29.222332 -0600,
130,W,0,None,129,129,0,None,1,,,0,129,129,129,408.12396969999827,,,,,,,,,,,408.1092956999928,408.12396969999827,408.12396969999827,408.3074067999987,408.323458400002,410.1074085,None,1,,,,000001,001,2024-10-08_12h34.06.986,cpt_test,2024.2.2,60.11533728956547,2024-10-08 12h38.29.222332 -0600,
131,L,0,None,130,130,0,None,1,,,0,130,130,130,410.1220333999954,,,,,,,,,,,410.107551699999,410.1220333999954,410.1220333999954,410.3052779999998,410.322024699999,412.10652649999247,None,1,,,,000001,001,2024-10-08_12h34.06.986,cpt_test,2024.2.2,60.11533728956547,2024-10-08 12h38.29.222332 -0600,
132,F,0,None,131,131,0,None,1,,,0,131,131,131,412.12054249999346,,,,,,,,,,,412.1066878999991,412.12054249999346,412.12054249999346,412.3037774999975,412.32006060000276,414.1046267999918,None,1,,,,000001,001,2024-10-08_12h34.06.986,cpt_test,2024.2.2,60.11533728956547,2024-10-08 12h38.29.222332 -0600,
133,E,0,None,132,132,0,None,1,,,0,132,132,132,414.11915189999854,,,,,,,,,,,414.1047746999975,414.11915189999854,414.11915189999854,414.3018421000015,414.31845809999504,416.1032961000019,None,1,,,,000001,001,2024-10-08_12h34.06.986,cpt_test,2024.2.2,60.11533728956547,2024-10-08 12h38.29.222332 -0600,
134,L,0,None,133,133,0,None,1,,,0,133,133,133,416.1170789000025,,,,,,,,,,,416.10346850000496,416.1170789000025,416.1170789000025,416.3004301000037,416.3169212999928,418.10171580000315,None,1,,,,000001,001,2024-10-08_12h34.06.986,cpt_test,2024.2.2,60.11533728956547,2024-10-08 12h38.29.222332 -0600,
135,K,0,None,134,134,0,None,1,,,0,134,134,134,418.11547459999565,,,,,,,,,,,418.101860099996,418.11547459999565,418.11547459999565,418.31515890000446,418.31515890000446,420.1162694999948,None,1,,,,000001,001,2024-10-08_12h34.06.986,cpt_test,2024.2.2,60.11533728956547,2024-10-08 12h38.29.222332 -0600,
136,Q,0,None,135,135,0,None,1,,,0,135,135,135,420.1307778999908,,,,,,,,,,,420.1164273000031,420.1307778999908,420.1307778999908,420.3140371000045,420.3300137000042,422.1149390999926,None,1,,,,000001,001,2024-10-08_12h34.06.986,cpt_test,2024.2.2,60.11533728956547,2024-10-08 12h38.29.222332 -0600,
137,X,1,x,136,136,0,x,1,0.42774899999494664,0.2276733000035165,0,136,136,136,422.12918979999085,,,,,,,,,,,422.11509749999095,422.12918979999085,422.12918979999085,422.3121616999997,422.3285484999942,424.1196038999915,x,1,0.42774899999494664,0.2276733000035165,,000001,001,2024-10-08_12h34.06.986,cpt_test,2024.2.2,60.11533728956547,2024-10-08 12h38.29.222332 -0600,
138,J,0,None,137,137,0,None,1,,,0,137,137,137,424.1323249999987,,,,,,,,,,,424.1199932000018,424.1323249999987,424.1323249999987,424.31024340000295,424.34341719999793,426.1114610999939,None,1,,,,000001,001,2024-10-08_12h34.06.986,cpt_test,2024.2.2,60.11533728956547,2024-10-08 12h38.29.222332 -0600,
139,X,1,x,138,138,0,x,1,0.5595228000020143,0.2408047000062652,0,138,138,138,426.12570839999535,,,,,,,,,,,426.1116156999924,426.12570839999535,426.12570839999535,426.30867109999235,426.3252177999966,428.10977979999734,x,1,0.5595228000020143,0.2408047000062652,,000001,001,2024-10-08_12h34.06.986,cpt_test,2024.2.2,60.11533728956547,2024-10-08 12h38.29.222332 -0600,
140,E,0,None,139,139,0,None,1,,,0,139,139,139,428.1238718999957,,,,,,,,,,,428.1099261999916,428.1238718999957,428.1238718999957,428.3071884999954,428.32357399999455,430.10886530000425,None,1,,,,000001,001,2024-10-08_12h34.06.986,cpt_test,2024.2.2,60.11533728956547,2024-10-08 12h38.29.222332 -0600,
141,T,0,None,140,140,0,None,1,,,0,140,140,140,430.12234570000146,,,,,,,,,,,430.10907269999734,430.12234570000146,430.12234570000146,430.3056332999986,430.3220028999931,432.1069833999936,None,1,,,,000001,001,2024-10-08_12h34.06.986,cpt_test,2024.2.2,60.11533728956547,2024-10-08 12h38.29.222332 -0600,
142,X,1,x,141,141,0,x,1,0.4642009999952279,0.2317786000057822,0,141,141,141,432.12075780000305,,,,,,,,,,,432.10718500000075,432.12075780000305,432.12075780000305,432.30390610000177,432.3203050000011,434.10471620000317,x,1,0.4642009999952279,0.2317786000057822,,000001,001,2024-10-08_12h34.06.986,cpt_test,2024.2.2,60.11533728956547,2024-10-08 12h38.29.222332 -0600,
143,Q,0,None,142,142,0,None,1,,,0,142,142,142,434.11896239999624,,,,,,,,,,,434.1048749000038,434.11896239999624,434.11896239999624,434.3020617000002,434.3186615000013,436.1039493999997,None,1,,,,000001,001,2024-10-08_12h34.06.986,cpt_test,2024.2.2,60.11533728956547,2024-10-08 12h38.29.222332 -0600,
144,V,0,None,143,143,0,None,1,,,0,143,143,143,436.11752949999936,,,,,,,,,,,436.10414630000014,436.11752949999936,436.11752949999936,436.30072010000004,436.3165774999943,438.10176199999114,None,1,,,,000001,001,2024-10-08_12h34.06.986,cpt_test,2024.2.2,60.11533728956547,2024-10-08 12h38.29.222332 -0600,
145,Y,0,None,144,144,0,None,1,,,0,144,144,144,438.1156726000045,,,,,,,,,,,438.10193239999353,438.1156726000045,438.1156726000045,438.315296899993,438.315296899993,440.1169336000021,None,1,,,,000001,001,2024-10-08_12h34.06.986,cpt_test,2024.2.2,60.11533728956547,2024-10-08 12h38.29.222332 -0600,
146,O,0,None,145,145,0,None,1,,,0,145,145,145,440.13077659999544,,,,,,,,,,,440.117095900001,440.13077659999544,440.13077659999544,440.3141500999918,440.3303242999973,442.1143466999929,None,1,,,,000001,001,2024-10-08_12h34.06.986,cpt_test,2024.2.2,60.11533728956547,2024-10-08 12h38.29.222332 -0600,
147,T,0,None,146,146,0,None,1,,,0,146,146,146,442.12945949999266,,,,,,,,,,,442.11448499999824,442.12945949999266,442.12945949999266,442.3125482000032,442.328800599993,444.1134643999976,None,1,,,,000001,001,2024-10-08_12h34.06.986,cpt_test,2024.2.2,60.11533728956547,2024-10-08 12h38.29.222332 -0600,
148,X,1,x,147,147,0,x,1,0.4666762999986531,0.19197080000594724,0,147,147,147,444.12769259999914,,,,,,,,,,,444.1136253000004,444.12769259999914,444.12769259999914,444.31082509999396,444.327137500004,446.1116392999975,x,1,0.4666762999986531,0.19197080000594724,,000001,001,2024-10-08_12h34.06.986,cpt_test,2024.2.2,60.11533728956547,2024-10-08 12h38.29.222332 -0600,
149,T,0,None,148,148,0,None,1,,,0,148,148,148,446.1260784000042,,,,,,,,,,,446.111796600002,446.1260784000042,446.1260784000042,446.30934409999463,446.3255080999952,448.11068630000227,None,1,,,,000001,001,2024-10-08_12h34.06.986,cpt_test,2024.2.2,60.11533728956547,2024-10-08 12h38.29.222332 -0600,
150,S,0,None,149,149,0,None,1,,,0,149,149,149,448.1243082000001,,,,,,,,,,,448.11087479999696,448.1243082000001,448.1243082000001,448.30767419999756,448.32379039999796,450.10835369999404,None,1,,,,000001,001,2024-10-08_12h34.06.986,cpt_test,2024.2.2,60.11533728956547,2024-10-08 12h38.29.222332 -0600,
151,L,0,None,150,150,0,None,1,,,0,150,150,150,450.12251699999615,,,,,,,,,,,450.1085144999961,450.12251699999615,450.12251699999615,450.30584629999066,450.32201160000113,452.1064403999917,None,1,,,,000001,001,2024-10-08_12h34.06.986,cpt_test,2024.2.2,60.11533728956547,2024-10-08 12h38.29.222332 -0600,
152,V,0,None,151,151,0,None,1,,,0,151,151,151,452.121132699991,,,,,,,,,,,452.1066007999907,452.121132699991,452.121132699991,452.30432969999674,452.3204490999924,454.10499599999457,None,1,,,,000001,001,2024-10-08_12h34.06.986,cpt_test,2024.2.2,60.11533728956547,2024-10-08 12h38.29.222332 -0600,
153,C,0,None,152,152,0,None,1,,,0,152,152,152,454.1193881999934,,,,,,,,,,,454.10518089999096,454.1193881999934,454.1193881999934,454.3026409000013,454.31886260000465,456.10370569999213,None,1,,,,000001,001,2024-10-08_12h34.06.986,cpt_test,2024.2.2,60.11533728956547,2024-10-08 12h38.29.222332 -0600,
154,U,0,None,153,153,0,None,1,,,0,153,153,153,456.1175239000004,,,,,,,,,,,456.1038750000007,456.1175239000004,456.1175239000004,456.3009302999999,456.31725449999794,458.1017570999975,None,1,,,,000001,001,2024-10-08_12h34.06.986,cpt_test,2024.2.2,60.11533728956547,2024-10-08 12h38.29.222332 -0600,
155,X,1,x,154,154,0,x,1,0.4444084999995539,0.1964014999975916,0,154,154,154,458.1161987999949,,,,,,,,,,,458.10190979999606,458.1161987999949,458.1161987999949,458.31552550000197,458.31552550000197,460.1165386999928,x,1,0.4444084999995539,0.1964014999975916,,000001,001,2024-10-08_12h34.06.986,cpt_test,2024.2.2,60.11533728956547,2024-10-08 12h38.29.222332 -0600,
156,X,1,x,155,155,0,x,1,0.4293572000024142,0.18612559999746736,0,155,155,155,460.13127660000464,,,,,,,,,,,460.1167087999929,460.13127660000464,460.13127660000464,460.3142652999959,460.33060529999784,462.11552979999396,x,1,0.4293572000024142,0.18612559999746736,,000001,001,2024-10-08_12h34.06.986,cpt_test,2024.2.2,60.11533728956547,2024-10-08 12h38.29.222332 -0600,
157,L,0,None,156,156,0,None,1,,,0,156,156,156,462.1292683999927,,,,,,,,,,,462.1156966999988,462.1292683999927,462.1292683999927,462.3125461000018,462.3289511000039,464.1138934999908,None,1,,,,000001,001,2024-10-08_12h34.06.986,cpt_test,2024.2.2,60.11533728956547,2024-10-08 12h38.29.222332 -0600,
158,W,0,None,157,157,0,None,1,,,0,157,157,157,464.1278430999955,,,,,,,,,,,464.11406209999404,464.1278430999955,464.1278430999955,464.31103260000236,464.32741359999636,466.1121424000012,None,1,,,,000001,001,2024-10-08_12h34.06.986,cpt_test,2024.2.2,60.11533728956547,2024-10-08 12h38.29.222332 -0600,
159,A,0,None,158,158,0,None,1,,,0,158,158,158,466.12591699999757,,,,,,,,,,,466.11231650000263,466.12591699999757,466.12591699999757,466.3092933000007,466.3255344999925,468.1105733000004,None,1,,,,000001,001,2024-10-08_12h34.06.986,cpt_test,2024.2.2,60.11533728956547,2024-10-08 12h38.29.222332 -0600,
160,X,1,x,159,159,0,x,1,0.4307386000000406,0.1967789000045741,0,159,159,159,468.1246351000009,,,,,,,,,,,468.1107290999935,468.1246351000009,468.1246351000009,468.3075528999907,468.3238321999961,470.1084111999953,x,1,0.4307386000000406,0.1967789000045741,,000001,001,2024-10-08_12h34.06.986,cpt_test,2024.2.2,60.11533728956547,2024-10-08 12h38.29.222332 -0600,
161,A,0,None,160,160,0,None,1,,,0,160,160,160,470.12296320000314,,,,,,,,,,,470.10857450000185,470.12296320000314,470.12296320000314,470.30604799999855,470.3223915999988,472.10653019999154,None,1,,,,000001,001,2024-10-08_12h34.06.986,cpt_test,2024.2.2,60.11533728956547,2024-10-08 12h38.29.222332 -0600,
162,M,0,None,161,161,0,None,1,,,0,161,161,161,472.1212205999909,,,,,,,,,,,472.10668070000247,472.1212205999909,472.1212205999909,472.3043670000043,472.320664400002,474.10511370000313,None,1,,,,000001,001,2024-10-08_12h34.06.986,cpt_test,2024.2.2,60.11533728956547,2024-10-08 12h38.29.222332 -0600,
163,X,1,x,162,162,0,x,1,0.39668380000512116,0.21137389999057632,0,162,162,162,474.11929699999746,,,,,,,,,,,474.1052548000007,474.11929699999746,474.11929699999746,474.30253479999374,474.3190969999996,476.1036180999945,x,1,0.39668380000512116,0.21137389999057632,,000001,001,2024-10-08_12h34.06.986,cpt_test,2024.2.2,60.11533728956547,2024-10-08 12h38.29.222332 -0600,
164,X,1,x,163,163,0,x,1,0.40984030000981875,0.20525379999889992,0,163,163,163,476.11772850000125,,,,,,,,,,,476.1038002999994,476.11772850000125,476.11772850000125,476.30107560000033,476.3171091999975,478.1018175999925,x,1,0.40984030000981875,0.20525379999889992,,000001,001,2024-10-08_12h34.06.986,cpt_test,2024.2.2,60.11533728956547,2024-10-08 12h38.29.222332 -0600,
165,K,0,None,164,164,0,None,1,,,0,164,164,164,478.1163196999987,,,,,,,,,,,478.1019663000043,478.1163196999987,478.1163196999987,478.29920239999774,478.3157433000015,480.116952700002,None,1,,,480.11418999999296,000001,001,2024-10-08_12h34.06.986,cpt_test,2024.2.2,60.11533728956547,2024-10-08 12h38.29.222332 -0600,
166,X,1,x,165,165,0,x,1,0.462152199994307,0.1953990000038175,0,165,165,165,480.131117900004,,,,,,,,,,,480.1171105999965,480.131117900004,480.131117900004,480.31405220000306,480.33080929999414,482.11548549999134,x,1,0.462152199994307,0.1953990000038175,,000001,001,2024-10-08_12h34.06.986,cpt_test,2024.2.2,60.11533728956547,2024-10-08 12h38.29.222332 -0600,
167,M,0,None,166,166,0,None,1,,,0,166,166,166,482.1297983999975,,,,,,,,,,,482.11564889999863,482.1297983999975,482.1297983999975,482.3126010999986,482.32895290000306,484.11366740000085,None,1,,,,000001,001,2024-10-08_12h34.06.986,cpt_test,2024.2.2,60.11533728956547,2024-10-08 12h38.29.222332 -0600,
168,X,1,x,167,167,0,x,1,0.43588990000716876,0.20642629999201745,0,167,167,167,484.1281883999909,,,,,,,,,,,484.1138104999991,484.1281883999909,484.1281883999909,484.3112776999915,484.32770249999885,486.11193939999794,x,1,0.43588990000716876,0.20642629999201745,,000001,001,2024-10-08_12h34.06.986,cpt_test,2024.2.2,60.11533728956547,2024-10-08 12h38.29.222332 -0600,
169,A,0,None,168,168,0,None,1,,,0,168,168,168,486.126291499997,,,,,,,,,,,486.1121170999977,486.126291499997,486.126291499997,486.30952490000345,486.325940499999,488.10989629999676,None,1,,,,000001,001,2024-10-08_12h34.06.986,cpt_test,2024.2.2,60.11533728956547,2024-10-08 12h38.29.222332 -0600,
170,X,1,x,169,169,0,x,1,0.4408493999944767,0.17314830000395887,0,169,169,169,488.1245038999914,,,,,,,,,,,488.1100408999919,488.1245038999914,488.1245038999914,488.3079132999992,488.3242300999991,490.10862169999746,x,1,0.4408493999944767,0.17314830000395887,,000001,001,2024-10-08_12h34.06.986,cpt_test,2024.2.2,60.11533728956547,2024-10-08 12h38.29.222332 -0600,
171,L,0,None,170,170,0,None,1,,,0,170,170,170,490.1231237000029,,,,,,,,,,,490.1087717000046,490.1231237000029,490.1231237000029,490.3063114999968,490.32262429999537,492.10708099999465,None,1,,,,000001,001,2024-10-08_12h34.06.986,cpt_test,2024.2.2,60.11533728956547,2024-10-08 12h38.29.222332 -0600,
172,E,0,None,171,171,0,None,1,,,0,171,171,171,492.1212519999972,,,,,,,,,,,492.10723919999145,492.1212519999972,492.1212519999972,492.3045793999918,492.3206598999968,494.10513840000203,None,1,,,,000001,001,2024-10-08_12h34.06.986,cpt_test,2024.2.2,60.11533728956547,2024-10-08 12h38.29.222332 -0600,
173,T,0,None,172,172,0,None,1,,,0,172,172,172,494.1197116999974,,,,,,,,,,,494.1052939999936,494.1197116999974,494.1197116999974,494.30293879999954,494.3193689000036,496.1039921999909,None,1,,,,000001,001,2024-10-08_12h34.06.986,cpt_test,2024.2.2,60.11533728956547,2024-10-08 12h38.29.222332 -0600,
174,F,0,None,173,173,0,None,1,,,0,173,173,173,496.1179376999935,,,,,,,,,,,496.1041511999938,496.1179376999935,496.1179376999935,496.3012724,496.31733809999423,498.1020600999909,None,1,,,,000001,001,2024-10-08_12h34.06.986,cpt_test,2024.2.2,60.11533728956547,2024-10-08 12h38.29.222332 -0600,
175,M,0,None,174,174,0,None,1,,,0,174,174,174,498.11629099999845,,,,,,,,,,,498.10220870000194,498.11629099999845,498.11629099999845,498.2998030000017,498.3159217999928,500.10060489999887,None,1,,,,000001,001,2024-10-08_12h34.06.986,cpt_test,2024.2.2,60.11533728956547,2024-10-08 12h38.29.222332 -0600,
176,Q,0,None,175,175,0,None,1,,,0,175,175,175,500.1147966999997,,,,,,,,,,,500.1007729999983,500.1147966999997,500.1147966999997,500.3143995999999,500.3143995999999,502.1159050999995,None,1,,,,000001,001,2024-10-08_12h34.06.986,cpt_test,2024.2.2,60.11533728956547,2024-10-08 12h38.29.222332 -0600,
177,M,0,None,176,176,0,None,1,,,0,176,176,176,502.1299650000001,,,,,,,,,,,502.11607069999445,502.1299650000001,502.1299650000001,502.3130511999916,502.32928269999684,504.11388580000494,None,1,,,,000001,001,2024-10-08_12h34.06.986,cpt_test,2024.2.2,60.11533728956547,2024-10-08 12h38.29.222332 -0600,
178,X,1,x,177,177,0,x,1,0.4704497999919113,0.21817650001321454,0,177,177,177,504.1282809999975,,,,,,,,,,,504.11404250000487,504.1282809999975,504.1282809999975,504.31150300000445,504.32761009999376,506.1124472999945,x,1,0.4704497999919113,0.21817650001321454,,000001,001,2024-10-08_12h34.06.986,cpt_test,2024.2.2,60.11533728956547,2024-10-08 12h38.29.222332 -0600,
179,V,0,None,178,178,0,None,1,,,0,178,178,178,506.1266082999937,,,,,,,,,,,506.11263239999244,506.1266082999937,506.1266082999937,506.3097109999944,506.32614209999156,508.1102819999942,None,1,,,,000001,001,2024-10-08_12h34.06.986,cpt_test,2024.2.2,60.11533728956547,2024-10-08 12h38.29.222332 -0600,
180,M,0,None,179,179,0,None,1,,,0,179,179,179,508.12520439999935,,,,,,,,,,,508.11042939999606,508.12520439999935,508.12520439999935,508.3081291999988,508.32442309999897,510.10916720000387,None,1,,,,000001,001,2024-10-08_12h34.06.986,cpt_test,2024.2.2,60.11533728956547,2024-10-08 12h38.29.222332 -0600,
181,P,0,None,180,180,0,None,1,,,0,180,180,180,510.1232203999971,,,,,,,,,,,510.109348900005,510.1232203999971,510.1232203999971,510.30611180000415,510.3226059000008,512.1069201999926,None,1,,,,000001,001,2024-10-08_12h34.06.986,cpt_test,2024.2.2,60.11533728956547,2024-10-08 12h38.29.222332 -0600,
182,K,0,None,181,181,0,None,1,,,0,181,181,181,512.1216210999992,,,,,,,,,,,512.1070717999974,512.1216210999992,512.1216210999992,512.3049238999956,512.3210709999985,514.1056556999974,None,1,,,,000001,001,2024-10-08_12h34.06.986,cpt_test,2024.2.2,60.11533728956547,2024-10-08 12h38.29.222332 -0600,
183,V,0,None,182,182,0,None,1,,,0,182,182,182,514.1201035999984,,,,,,,,,,,514.105811699992,514.1201035999984,514.1201035999984,514.3031715999969,514.3194097999949,516.1038371000031,None,1,,,,000001,001,2024-10-08_12h34.06.986,cpt_test,2024.2.2,60.11533728956547,2024-10-08 12h38.29.222332 -0600,
184,G,0,None,183,183,0,None,1,,,0,183,183,183,516.1184691999952,,,,,,,,,,,516.1040019999928,516.1184691999952,516.1184691999952,516.3017085000029,516.317699399995,518.102015299999,None,1,,,,000001,001,2024-10-08_12h34.06.986,cpt_test,2024.2.2,60.11533728956547,2024-10-08 12h38.29.222332 -0600,
185,L,0,None,184,184,0,None,1,,,0,184,184,184,518.1167704999971,,,,,,,,,,,518.1021598999941,518.1167704999971,518.1167704999971,518.2996887000045,518.3162747000024,520.1006969000009,None,1,,,,000001,001,2024-10-08_12h34.06.986,cpt_test,2024.2.2,60.11533728956547,2024-10-08 12h38.29.222332 -0600,
186,Q,0,None,185,185,0,None,1,,,0,185,185,185,520.1151853000047,,,,,,,,,,,520.1008525999932,520.1151853000047,520.1151853000047,520.3143424000009,520.3143424000009,522.1154020999966,None,1,,,,000001,001,2024-10-08_12h34.06.986,cpt_test,2024.2.2,60.11533728956547,2024-10-08 12h38.29.222332 -0600,
187,N,0,None,186,186,0,None,1,,,0,186,186,186,522.1299582999927,,,,,,,,,,,522.1155411999935,522.1299582999927,522.1299582999927,522.3132602999976,522.329362000004,524.113751900004,None,1,,,,000001,001,2024-10-08_12h34.06.986,cpt_test,2024.2.2,60.11533728956547,2024-10-08 12h38.29.222332 -0600,
188,K,0,None,187,187,0,None,1,,,0,187,187,187,524.1284107999963,,,,,,,,,,,524.1139006000012,524.1284107999963,524.1284107999963,524.3116493999987,524.327909700005,526.1122847999941,None,1,,,,000001,001,2024-10-08_12h34.06.986,cpt_test,2024.2.2,60.11533728956547,2024-10-08 12h38.29.222332 -0600,
189,C,0,None,188,188,0,None,1,,,0,188,188,188,526.1268429000047,,,,,,,,,,,526.1124515999982,526.1268429000047,526.1268429000047,526.3099873000028,526.3261503999965,528.1103017999994,None,1,,,,000001,001,2024-10-08_12h34.06.986,cpt_test,2024.2.2,60.11533728956547,2024-10-08 12h38.29.222332 -0600,
190,Z,0,None,189,189,0,None,1,,,0,189,189,189,528.1249180000013,,,,,,,,,,,528.110439600001,528.1249180000013,528.1249180000013,528.3080994999909,528.3245944999944,530.1090675000014,None,1,,,,000001,001,2024-10-08_12h34.06.986,cpt_test,2024.2.2,60.11533728956547,2024-10-08 12h38.29.222332 -0600,
191,I,0,None,190,190,0,None,1,,,0,190,190,190,530.1231780999951,,,,,,,,,,,530.1092265000043,530.1231780999951,530.1231780999951,530.3064003000036,530.3227760000009,532.1076763000019,None,1,,,,000001,001,2024-10-08_12h34.06.986,cpt_test,2024.2.2,60.11533728956547,2024-10-08 12h38.29.222332 -0600,
192,J,0,None,191,191,0,None,1,,,0,191,191,191,532.121472800005,,,,,,,,,,,532.1078326999996,532.121472800005,532.121472800005,532.3047901999962,532.3211063999915,534.1058341000025,None,1,,,,000001,001,2024-10-08_12h34.06.986,cpt_test,2024.2.2,60.11533728956547,2024-10-08 12h38.29.222332 -0600,
193,X,1,x,192,192,0,x,1,0.4607759999926202,0.2102867000066908,0,192,192,192,534.1201232000021,,,,,,,,,,,534.105990600001,534.1201232000021,534.1201232000021,534.3034127999999,534.3195493999956,536.104262599998,x,1,0.4607759999926202,0.2102867000066908,,000001,001,2024-10-08_12h34.06.986,cpt_test,2024.2.2,60.11533728956547,2024-10-08 12h38.29.222332 -0600,
194,E,0,None,193,193,0,None,1,,,0,193,193,193,536.1185917999974,,,,,,,,,,,536.1044320999936,536.1185917999974,536.1185917999974,536.3016196999961,536.3181254999945,538.1026249999995,None,1,,,,000001,001,2024-10-08_12h34.06.986,cpt_test,2024.2.2,60.11533728956547,2024-10-08 12h38.29.222332 -0600,
195,X,1,x,194,194,0,x,1,0.4607304000091972,0.21532160000060685,0,194,194,194,538.1168065999955,,,,,,,,,,,538.1027843999909,538.1168065999955,538.1168065999955,538.2999234000017,538.3164849000023,540.1008418999991,x,1,0.4607304000091972,0.21532160000060685,,000001,001,2024-10-08_12h34.06.986,cpt_test,2024.2.2,60.11533728956547,2024-10-08 12h38.29.222332 -0600,
196,X,1,x,195,195,0,x,1,0.45060720000765286,0.19693150000239257,0,195,195,195,540.1151490000047,,,,,,,,,,,540.1010089999909,540.1151490000047,540.1151490000047,540.3145947000012,540.3145947000012,542.1158759999962,x,1,0.45060720000765286,0.19693150000239257,,000001,001,2024-10-08_12h34.06.986,cpt_test,2024.2.2,60.11533728956547,2024-10-08 12h38.29.222332 -0600,
197,O,0,None,196,196,0,None,1,,,0,196,196,196,542.1300378000014,,,,,,,,,,,542.1160415999911,542.1300378000014,542.1300378000014,542.3133909000026,542.3298540999967,544.1140026999929,None,1,,,,000001,001,2024-10-08_12h34.06.986,cpt_test,2024.2.2,60.11533728956547,2024-10-08 12h38.29.222332 -0600,
198,X,1,x,197,197,0,x,1,0.4331163999886485,0.21889080000983085,0,197,197,197,544.1286055999954,,,,,,,,,,,544.1141534999915,544.1286055999954,544.1286055999954,544.3115247999958,544.3281745999993,546.112487499995,x,1,0.4331163999886485,0.21889080000983085,,000001,001,2024-10-08_12h34.06.986,cpt_test,2024.2.2,60.11533728956547,2024-10-08 12h38.29.222332 -0600,
199,T,0,None,198,198,0,None,1,,,0,198,198,198,546.1269908999966,,,,,,,,,,,546.1126627000049,546.1269908999966,546.1269908999966,546.3097828000027,546.3263387999905,548.1115084000048,None,1,,,,000001,001,2024-10-08_12h34.06.986,cpt_test,2024.2.2,60.11533728956547,2024-10-08 12h38.29.222332 -0600,
200,X,1,x,199,199,0,x,1,0.3897978000022704,0.1922290999937104,0,199,199,199,548.125111500005,,,,,,,,,,,548.1116991000017,548.125111500005,548.125111500005,548.3082960000029,548.3247532999958,550.1093255000014,x,1,0.3897978000022704,0.1922290999937104,,000001,001,2024-10-08_12h34.06.986,cpt_test,2024.2.2,60.11533728956547,2024-10-08 12h38.29.222332 -0600,
201,L,0,None,200,200,0,None,1,,,0,200,200,200,550.1233885999973,,,,,,,,,,,550.1094967999961,550.1233885999973,550.1233885999973,550.3067741999985,550.3231910000031,552.1073681999987,None,1,,,,000001,001,2024-10-08_12h34.06.986,cpt_test,2024.2.2,60.11533728956547,2024-10-08 12h38.29.222332 -0600,
