Number,letra,target,correctas,thisN,thisTrialN,thisRepN,respuesta.keys,respuesta.corr,respuesta.rt,respuesta.duration,trials.thisRepN,trials.thisTrialN,trials.thisN,trials.thisIndex,thisRow.t,notes,Ojos_abiertos.started,Abiertos.started,Ojos_abiertos.stopped,Ojos_cerrados.started,Cerrados.started,Cerrados.stopped,alert.started,Ojos_cerrados.stopped,Test.started,prueba.started,respuesta.started,text.started,prueba.stopped,Test.stopped,trials.respuesta.keys,trials.respuesta.corr,trials.respuesta.rt,trials.respuesta.duration,text.stopped,participant,session,date,expName,psychopyVersion,frameRate,expStart,
,,,,,,,,,,,,,,,,,0.009496399987256154,0.01766499999212101,90.00322849999066,,,,,,,,,,,,,,,,,000013,001,2024-10-09_13h48.09.491,cpt_test,2024.2.2,60.192809600810406,2024-10-09 13h50.21.233488 -0600,
,,,,,,,,,,,,,,,,,,,,90.00471189999371,90.01563430001261,150.01599929999793,150.0159525666716,150.10336199999438,,,,,,,,,,,,000013,001,2024-10-09_13h48.09.491,cpt_test,2024.2.2,60.192809600810406,2024-10-09 13h50.21.233488 -0600,
1,A,0,None,0,0,0,None,1,,,0,0,0,0,150.28760370000964,,,,,,,,,,150.13569359999383,150.28760370000964,150.28760370000964,150.29957730000024,150.49888820000342,152.1012584999844,None,1,,,,000013,001,2024-10-09_13h48.09.491,cpt_test,2024.2.2,60.192809600810406,2024-10-09 13h50.21.233488 -0600,
2,R,0,None,1,1,0,None,1,,,0,1,1,1,152.123110799992,,,,,,,,,,152.10146750000422,152.123110799992,152.123110799992,152.31443150000996,152.33103949998622,154.11581190000288,None,1,,,,000013,001,2024-10-09_13h48.09.491,cpt_test,2024.2.2,60.192809600810406,2024-10-09 13h50.21.233488 -0600,
3,L,0,None,2,2,0,None,1,,,0,2,2,2,154.13523769998574,,,,,,,,,,154.1160041000112,154.13523769998574,154.13523769998574,154.31269620000967,154.34578890001285,156.11414990000776,None,1,,,,000013,001,2024-10-09_13h48.09.491,cpt_test,2024.2.2,60.192809600810406,2024-10-09 13h50.21.233488 -0600,
4,X,1,x,3,3,0,x,1,0.9881366999761667,0.10833650000859052,0,3,3,3,156.131544200005,,,,,,,,,,156.11433959999704,156.131544200005,156.131544200005,156.31114410000737,156.34425369999371,158.11322289999225,x,1,0.9881366999761667,0.10833650000859052,,000013,001,2024-10-09_13h48.09.491,cpt_test,2024.2.2,60.192809600810406,2024-10-09 13h50.21.233488 -0600,
5,O,0,None,4,4,0,None,1,,,0,4,4,4,158.13294310000492,,,,,,,,,,158.1134493999998,158.13294310000492,158.13294310000492,158.30971150001278,158.34239279999747,160.1107817000011,None,1,,,,000013,001,2024-10-09_13h48.09.491,cpt_test,2024.2.2,60.192809600810406,2024-10-09 13h50.21.233488 -0600,
6,G,0,None,5,5,0,None,1,,,0,5,5,5,160.12785419999273,,,,,,,,,,160.1109548000095,160.12785419999273,160.12785419999273,160.307957299985,160.34087590000127,162.10853019999922,None,1,,,,000013,001,2024-10-09_13h48.09.491,cpt_test,2024.2.2,60.192809600810406,2024-10-09 13h50.21.233488 -0600,
7,P,0,None,6,6,0,None,1,,,0,6,6,6,162.13135270000203,,,,,,,,,,162.10867210000288,162.13135270000203,162.13135270000203,162.3062491999881,162.33927540000877,164.10699589998694,None,1,,,,000013,001,2024-10-09_13h48.09.491,cpt_test,2024.2.2,60.192809600810406,2024-10-09 13h50.21.233488 -0600,
8,X,1,x,7,7,0,x,1,1.1230656999978237,0.10394959998666309,0,7,7,7,164.12146150000626,,,,,,,,,,164.1071582000004,164.12146150000626,164.12146150000626,164.30474059999688,164.321073900006,166.106028899987,x,1,1.1230656999978237,0.10394959998666309,,000013,001,2024-10-09_13h48.09.491,cpt_test,2024.2.2,60.192809600810406,2024-10-09 13h50.21.233488 -0600,
9,X,1,x,8,8,0,x,1,1.2764797999989241,0.1488695000007283,0,8,8,8,166.11983730000793,,,,,,,,,,166.10624349999125,166.11983730000793,166.11983730000793,166.3030063000042,166.3193706999882,168.10414680000395,x,1,1.2764797999989241,0.1488695000007283,,000013,001,2024-10-09_13h48.09.491,cpt_test,2024.2.2,60.192809600810406,2024-10-09 13h50.21.233488 -0600,
10,Z,0,None,9,9,0,None,1,,,0,9,9,9,168.12162869999884,,,,,,,,,,168.10433750000084,168.12162869999884,168.12162869999884,168.3013346999942,168.33434860000852,170.10365000000456,None,1,,,,000013,001,2024-10-09_13h48.09.491,cpt_test,2024.2.2,60.192809600810406,2024-10-09 13h50.21.233488 -0600,
11,I,0,None,10,10,0,None,1,,,0,10,10,10,170.1238708999881,,,,,,,,,,170.10388089998742,170.1238708999881,170.1238708999881,170.316175999993,170.33270930001163,172.10082079999847,None,1,,,,000013,001,2024-10-09_13h48.09.491,cpt_test,2024.2.2,60.192809600810406,2024-10-09 13h50.21.233488 -0600,
12,D,0,None,11,11,0,None,1,,,0,11,11,11,172.12085589999333,,,,,,,,,,172.10100530000636,172.12085589999333,172.12085589999333,172.31483509999816,172.3310508999857,174.11672530000214,None,1,,,,000013,001,2024-10-09_13h48.09.491,cpt_test,2024.2.2,60.192809600810406,2024-10-09 13h50.21.233488 -0600,
13,X,1,x,12,12,0,x,1,0.41510669997660443,0.1780293000047095,0,12,12,12,174.12990239998908,,,,,,,,,,174.1169394000026,174.12990239998908,174.12990239998908,174.3130702000053,174.32935479999287,176.1139637999877,x,1,0.41510669997660443,0.1780293000047095,,000013,001,2024-10-09_13h48.09.491,cpt_test,2024.2.2,60.192809600810406,2024-10-09 13h50.21.233488 -0600,
14,Y,0,None,13,13,0,None,1,,,0,13,13,13,176.13323949999176,,,,,,,,,,176.11415269999998,176.13323949999176,176.13323949999176,176.31151850000606,176.34461010000086,178.1125166999991,None,1,,,,000013,001,2024-10-09_13h48.09.491,cpt_test,2024.2.2,60.192809600810406,2024-10-09 13h50.21.233488 -0600,
15,X,1,x,14,14,0,x,1,0.4502775000000838,0.17943830002332106,0,14,14,14,178.12658790001296,,,,,,,,,,178.1126951999904,178.12658790001296,178.12658790001296,178.3097996999859,178.32617399998708,180.11141509999288,x,1,0.4502775000000838,0.17943830002332106,,000013,001,2024-10-09_13h48.09.491,cpt_test,2024.2.2,60.192809600810406,2024-10-09 13h50.21.233488 -0600,
16,X,1,x,15,15,0,x,1,0.5424248999916017,0.15934179999749176,0,15,15,15,180.1247347999888,,,,,,,,,,180.11164260000805,180.1247347999888,180.1247347999888,180.30807689999347,180.32445129999542,182.10989980000886,x,1,0.5424248999916017,0.15934179999749176,,000013,001,2024-10-09_13h48.09.491,cpt_test,2024.2.2,60.192809600810406,2024-10-09 13h50.21.233488 -0600,
17,A,0,None,16,16,0,None,1,,,0,16,16,16,182.1231664000079,,,,,,,,,,182.11012719999417,182.1231664000079,182.1231664000079,182.30642469998566,182.32278509999742,184.10805640000035,None,1,,,,000013,001,2024-10-09_13h48.09.491,cpt_test,2024.2.2,60.192809600810406,2024-10-09 13h50.21.233488 -0600,
18,J,0,None,17,17,0,None,1,,,0,17,17,17,184.12795629998436,,,,,,,,,,184.10824259999208,184.12795629998436,184.12795629998436,184.30487980000908,184.33775770000648,186.1066875999968,None,1,,,,000013,001,2024-10-09_13h48.09.491,cpt_test,2024.2.2,60.192809600810406,2024-10-09 13h50.21.233488 -0600,
19,G,0,None,18,18,0,None,1,,,0,18,18,18,186.12013419999857,,,,,,,,,,186.1069038999849,186.12013419999857,186.12013419999857,186.30319989999407,186.31960550000076,188.1048979999905,None,1,,,,000013,001,2024-10-09_13h48.09.491,cpt_test,2024.2.2,60.192809600810406,2024-10-09 13h50.21.233488 -0600,
20,X,1,x,19,19,0,x,1,0.46624109998811036,0.17388849999406375,0,19,19,19,188.11814509998658,,,,,,,,,,188.10510169999907,188.11814509998658,188.11814509998658,188.30163810000522,188.3179467000009,190.10204309999244,x,1,0.46624109998811036,0.17388849999406375,,000013,001,2024-10-09_13h48.09.491,cpt_test,2024.2.2,60.192809600810406,2024-10-09 13h50.21.233488 -0600,
21,T,0,None,20,20,0,None,1,,,0,20,20,20,190.11995009999373,,,,,,,,,,190.10219370000414,190.11995009999373,190.11995009999373,190.30003519999445,190.33283800000208,192.11832939999294,None,1,,,192.11486629999126,000013,001,2024-10-09_13h48.09.491,cpt_test,2024.2.2,60.192809600810406,2024-10-09 13h50.21.233488 -0600,
22,S,0,None,21,21,0,None,1,,,0,21,21,21,192.13998820001143,,,,,,,,,,192.11853139998857,192.13998820001143,192.13998820001143,192.31500699999742,192.34790739999153,194.11648779999814,None,1,,,,000013,001,2024-10-09_13h48.09.491,cpt_test,2024.2.2,60.192809600810406,2024-10-09 13h50.21.233488 -0600,
23,X,1,x,22,22,0,x,1,0.4477049999986775,0.20471869999892078,0,22,22,22,194.13015010001254,,,,,,,,,,194.11668420000933,194.13015010001254,194.13015010001254,194.3130547000037,194.32955429999856,196.1139916999964,x,1,0.4477049999986775,0.20471869999892078,,000013,001,2024-10-09_13h48.09.491,cpt_test,2024.2.2,60.192809600810406,2024-10-09 13h50.21.233488 -0600,
24,S,0,None,23,23,0,None,1,,,0,23,23,23,196.12821269998676,,,,,,,,,,196.1141448999988,196.12821269998676,196.12821269998676,196.31161199999042,196.3278008000052,198.1132149999903,None,1,,,,000013,001,2024-10-09_13h48.09.491,cpt_test,2024.2.2,60.192809600810406,2024-10-09 13h50.21.233488 -0600,
25,G,0,None,24,24,0,None,1,,,0,24,24,24,198.12685910001164,,,,,,,,,,198.1134127000114,198.12685910001164,198.12685910001164,198.3097269999853,198.3262192000111,200.11146620000363,None,1,,,,000013,001,2024-10-09_13h48.09.491,cpt_test,2024.2.2,60.192809600810406,2024-10-09 13h50.21.233488 -0600,
26,O,0,None,25,25,0,None,1,,,0,25,25,25,200.1251656000095,,,,,,,,,,200.11166719999164,200.1251656000095,200.1251656000095,200.3083622000122,200.32448429998476,202.10990239999956,None,1,,,,000013,001,2024-10-09_13h48.09.491,cpt_test,2024.2.2,60.192809600810406,2024-10-09 13h50.21.233488 -0600,
27,P,0,None,26,26,0,None,1,,,0,26,26,26,202.123222299997,,,,,,,,,,202.11010389999137,202.123222299997,202.123222299997,202.30659409999498,202.32297380000819,204.10719819998485,None,1,,,,000013,001,2024-10-09_13h48.09.491,cpt_test,2024.2.2,60.192809600810406,2024-10-09 13h50.21.233488 -0600,
28,Z,0,None,27,27,0,None,1,,,0,27,27,27,204.12191220000386,,,,,,,,,,204.1073463000066,204.12191220000386,204.12191220000386,204.30508530000225,204.32108210001024,206.10668799999985,None,1,,,,000013,001,2024-10-09_13h48.09.491,cpt_test,2024.2.2,60.192809600810406,2024-10-09 13h50.21.233488 -0600,
29,X,1,x,28,28,0,x,1,0.5254216000030283,0.1771798999980092,0,28,28,28,206.1199867000105,,,,,,,,,,206.10688489998574,206.1199867000105,206.1199867000105,206.3031609999889,206.3197339999897,208.104087899992,x,1,0.5254216000030283,0.1771798999980092,,000013,001,2024-10-09_13h48.09.491,cpt_test,2024.2.2,60.192809600810406,2024-10-09 13h50.21.233488 -0600,
30,I,0,None,29,29,0,None,1,,,0,29,29,29,208.11852519999957,,,,,,,,,,208.10423779999837,208.11852519999957,208.11852519999957,208.30156920000445,208.31804469999042,210.1033968999982,None,1,,,,000013,001,2024-10-09_13h48.09.491,cpt_test,2024.2.2,60.192809600810406,2024-10-09 13h50.21.233488 -0600,
31,F,0,None,30,30,0,None,1,,,0,30,30,30,210.12191789998906,,,,,,,,,,210.1036049000104,210.12191789998906,210.12191789998906,210.30003189999843,210.3331298000121,212.101906099997,None,1,,,,000013,001,2024-10-09_13h48.09.491,cpt_test,2024.2.2,60.192809600810406,2024-10-09 13h50.21.233488 -0600,
32,M,0,None,31,31,0,None,1,,,0,31,31,31,212.1230804999941,,,,,,,,,,212.10212100000354,212.1230804999941,212.1230804999941,212.31524709999212,212.33160299999872,214.1162028000108,None,1,,,,000013,001,2024-10-09_13h48.09.491,cpt_test,2024.2.2,60.192809600810406,2024-10-09 13h50.21.233488 -0600,
33,T,0,None,32,32,0,None,1,,,0,32,32,32,214.1299938999873,,,,,,,,,,214.1163760999916,214.1299938999873,214.1299938999873,214.31378399999812,214.32973619998666,216.11441350000678,None,1,,,,000013,001,2024-10-09_13h48.09.491,cpt_test,2024.2.2,60.192809600810406,2024-10-09 13h50.21.233488 -0600,
34,A,0,None,33,33,0,None,1,,,0,33,33,33,216.12836339999922,,,,,,,,,,216.11457870001323,216.12836339999922,216.12836339999922,216.31164369999897,216.32799119999981,218.11262209998677,None,1,,,,000013,001,2024-10-09_13h48.09.491,cpt_test,2024.2.2,60.192809600810406,2024-10-09 13h50.21.233488 -0600,
35,E,0,None,34,34,0,None,1,,,0,34,34,34,218.12910250001005,,,,,,,,,,218.11278870000388,218.12910250001005,218.12910250001005,218.31026739999652,218.34295660001226,220.11120379998465,None,1,,,,000013,001,2024-10-09_13h48.09.491,cpt_test,2024.2.2,60.192809600810406,2024-10-09 13h50.21.233488 -0600,
36,X,1,x,35,35,0,x,1,0.48392829997465014,0.21358480001799762,0,35,35,35,220.12506739998935,,,,,,,,,,220.1113733999955,220.12506739998935,220.12506739998935,220.30829139999696,220.32461929999408,222.10997739998857,x,1,0.48392829997465014,0.21358480001799762,,000013,001,2024-10-09_13h48.09.491,cpt_test,2024.2.2,60.192809600810406,2024-10-09 13h50.21.233488 -0600,
37,A,0,None,36,36,0,None,1,,,0,36,36,36,222.1239055999904,,,,,,,,,,222.1101781000034,222.1239055999904,222.1239055999904,222.30658470001072,222.32303150001098,224.10781349998433,None,1,,,,000013,001,2024-10-09_13h48.09.491,cpt_test,2024.2.2,60.192809600810406,2024-10-09 13h50.21.233488 -0600,
38,S,0,None,37,37,0,None,1,,,0,37,37,37,224.12208249999094,,,,,,,,,,224.10798939998494,224.12208249999094,224.12208249999094,224.3054070000071,224.3214786000026,226.10667730000569,None,1,,,,000013,001,2024-10-09_13h48.09.491,cpt_test,2024.2.2,60.192809600810406,2024-10-09 13h50.21.233488 -0600,
39,U,0,None,38,38,0,None,1,,,0,38,38,38,226.12654190001194,,,,,,,,,,226.10687429999234,226.12654190001194,226.12654190001194,226.30348040000536,226.33639300000505,228.10465829999885,None,1,,,,000013,001,2024-10-09_13h48.09.491,cpt_test,2024.2.2,60.192809600810406,2024-10-09 13h50.21.233488 -0600,
40,U,0,None,39,39,0,None,1,,,0,39,39,39,228.11869989999104,,,,,,,,,,228.10483530000784,228.11869989999104,228.11869989999104,228.3020230999973,228.31813130000955,230.10378539998783,None,1,,,,000013,001,2024-10-09_13h48.09.491,cpt_test,2024.2.2,60.192809600810406,2024-10-09 13h50.21.233488 -0600,
41,Q,0,None,40,40,0,None,1,,,0,40,40,40,230.1242101000098,,,,,,,,,,230.1040066999849,230.1242101000098,230.1242101000098,230.30044890000136,230.33334469998954,232.10194019999471,None,1,,,,000013,001,2024-10-09_13h48.09.491,cpt_test,2024.2.2,60.192809600810406,2024-10-09 13h50.21.233488 -0600,
42,E,0,None,41,41,0,None,1,,,0,41,41,41,232.11535249999724,,,,,,,,,,232.10214199998882,232.11535249999724,232.11535249999724,232.31487709999783,232.31487709999783,234.11689070001012,None,1,,,,000013,001,2024-10-09_13h48.09.491,cpt_test,2024.2.2,60.192809600810406,2024-10-09 13h50.21.233488 -0600,
43,B,0,None,42,42,0,None,1,,,0,42,42,42,234.13647999998648,,,,,,,,,,234.11708769999677,234.13647999998648,234.13647999998648,234.3135317999986,234.3465186000103,236.11642949999077,None,1,,,,000013,001,2024-10-09_13h48.09.491,cpt_test,2024.2.2,60.192809600810406,2024-10-09 13h50.21.233488 -0600,
44,O,0,None,43,43,0,None,1,,,0,43,43,43,236.12866479999502,,,,,,,,,,236.11674540000968,236.12866479999502,236.12866479999502,236.31208000000333,236.32819090000703,238.11422779998975,None,1,,,,000013,001,2024-10-09_13h48.09.491,cpt_test,2024.2.2,60.192809600810406,2024-10-09 13h50.21.233488 -0600,
45,E,0,None,44,44,0,None,1,,,0,44,44,44,238.12707330001285,,,,,,,,,,238.1144581999979,238.12707330001285,238.12707330001285,238.31039530001,238.326544200012,240.11179600001196,None,1,,,,000013,001,2024-10-09_13h48.09.491,cpt_test,2024.2.2,60.192809600810406,2024-10-09 13h50.21.233488 -0600,
46,F,0,None,45,45,0,None,1,,,0,45,45,45,240.12570110001252,,,,,,,,,,240.11197820000234,240.12570110001252,240.12570110001252,240.3086331000086,240.32493609999074,242.10980949999066,None,1,,,,000013,001,2024-10-09_13h48.09.491,cpt_test,2024.2.2,60.192809600810406,2024-10-09 13h50.21.233488 -0600,
47,V,0,None,46,46,0,None,1,,,0,46,46,46,242.128942499985,,,,,,,,,,242.10997359998873,242.128942499985,242.128942499985,242.30673129999195,242.34011109999847,244.1083204000024,None,1,,,,000013,001,2024-10-09_13h48.09.491,cpt_test,2024.2.2,60.192809600810406,2024-10-09 13h50.21.233488 -0600,
48,X,1,x,47,47,0,x,1,0.5298246999736875,0.22954160001245327,0,47,47,47,244.12214849999873,,,,,,,,,,244.1085056999873,244.12214849999873,244.12214849999873,244.30543479998596,244.32151370000793,246.10696790000657,x,1,0.5298246999736875,0.22954160001245327,,000013,001,2024-10-09_13h48.09.491,cpt_test,2024.2.2,60.192809600810406,2024-10-09 13h50.21.233488 -0600,
49,X,1,x,48,48,0,x,1,0.5504846000112593,0.23308609999367036,0,48,48,48,246.12060049999855,,,,,,,,,,246.10716670000693,246.12060049999855,246.12060049999855,246.30360260000452,246.31995949998964,248.1055183999997,x,1,0.5504846000112593,0.23308609999367036,,000013,001,2024-10-09_13h48.09.491,cpt_test,2024.2.2,60.192809600810406,2024-10-09 13h50.21.233488 -0600,
50,C,0,None,49,49,0,None,1,,,0,49,49,49,248.12458740000147,,,,,,,,,,248.10571259999415,248.12458740000147,248.12458740000147,248.30211930000223,248.3351729999995,250.1041094000102,None,1,,,,000013,001,2024-10-09_13h48.09.491,cpt_test,2024.2.2,60.192809600810406,2024-10-09 13h50.21.233488 -0600,
51,M,0,None,50,50,0,None,1,,,0,50,50,50,250.1174270999909,,,,,,,,,,250.1043221,250.1174270999909,250.1174270999909,250.30048770000576,250.31677559998934,252.10179310000967,None,1,,,,000013,001,2024-10-09_13h48.09.491,cpt_test,2024.2.2,60.192809600810406,2024-10-09 13h50.21.233488 -0600,
52,D,0,None,51,51,0,None,1,,,0,51,51,51,252.11557799999719,,,,,,,,,,252.10196800000267,252.11557799999719,252.11557799999719,252.31516170001123,252.31516170001123,254.11688749998575,None,1,,,,000013,001,2024-10-09_13h48.09.491,cpt_test,2024.2.2,60.192809600810406,2024-10-09 13h50.21.233488 -0600,
53,X,1,x,52,52,0,x,1,0.5699859999876935,0.20126040000468493,0,52,52,52,254.13037080000504,,,,,,,,,,254.11705959998653,254.13037080000504,254.13037080000504,254.31408889999148,254.3300031000108,256.1147576000076,x,1,0.5699859999876935,0.20126040000468493,,000013,001,2024-10-09_13h48.09.491,cpt_test,2024.2.2,60.192809600810406,2024-10-09 13h50.21.233488 -0600,
54,K,0,None,53,53,0,None,1,,,0,53,53,53,256.1327043999918,,,,,,,,,,256.1149155999883,256.1327043999918,256.1327043999918,256.31230039999355,256.3450162000081,258.1127547000069,None,1,,,,000013,001,2024-10-09_13h48.09.491,cpt_test,2024.2.2,60.192809600810406,2024-10-09 13h50.21.233488 -0600,
55,X,1,x,54,54,0,x,1,0.6263835999998264,0.20872040002723224,0,54,54,54,258.12706040000194,,,,,,,,,,258.11290489998646,258.12706040000194,258.12706040000194,258.3104127999977,258.3268049999897,260.1115329999884,x,1,0.6263835999998264,0.20872040002723224,,000013,001,2024-10-09_13h48.09.491,cpt_test,2024.2.2,60.192809600810406,2024-10-09 13h50.21.233488 -0600,
56,N,0,None,55,55,0,None,1,,,0,55,55,55,260.1301816999912,,,,,,,,,,260.1116960000072,260.1301816999912,260.1301816999912,260.308901899989,260.341659800004,262.1106313999917,None,1,,,,000013,001,2024-10-09_13h48.09.491,cpt_test,2024.2.2,60.192809600810406,2024-10-09 13h50.21.233488 -0600,
57,M,0,None,56,56,0,None,1,,,0,56,56,56,262.12380380000104,,,,,,,,,,262.1108253999846,262.12380380000104,262.12380380000104,262.307324399997,262.3234683999908,264.10803000000305,None,1,,,,000013,001,2024-10-09_13h48.09.491,cpt_test,2024.2.2,60.192809600810406,2024-10-09 13h50.21.233488 -0600,
58,X,1,x,57,57,0,x,1,0.5816419000038877,0.19558990001678467,0,57,57,57,264.1223098000046,,,,,,,,,,264.1081716000044,264.1223098000046,264.1223098000046,264.3056377999892,264.3219071000058,266.1067391000106,x,1,0.5816419000038877,0.19558990001678467,,000013,001,2024-10-09_13h48.09.491,cpt_test,2024.2.2,60.192809600810406,2024-10-09 13h50.21.233488 -0600,
59,F,0,None,58,58,0,None,1,,,0,58,58,58,266.1211398000014,,,,,,,,,,266.10692449999624,266.1211398000014,266.1211398000014,266.30362660001265,266.3201407000015,268.10473880000063,None,1,,,,000013,001,2024-10-09_13h48.09.491,cpt_test,2024.2.2,60.192809600810406,2024-10-09 13h50.21.233488 -0600,
60,A,0,None,59,59,0,None,1,,,0,59,59,59,268.11901659998694,,,,,,,,,,268.10490690000006,268.11901659998694,268.11901659998694,268.3021713999915,268.3185464999988,270.1035462,None,1,,,,000013,001,2024-10-09_13h48.09.491,cpt_test,2024.2.2,60.192809600810406,2024-10-09 13h50.21.233488 -0600,
61,X,1,x,60,60,0,x,1,0.6110363000188954,0.17225539998617023,0,60,60,60,270.1174864000059,,,,,,,,,,270.10371520000626,270.1174864000059,270.1174864000059,270.3003658000089,270.3169421000057,272.10173110000324,x,1,0.6110363000188954,0.17225539998617023,,000013,001,2024-10-09_13h48.09.491,cpt_test,2024.2.2,60.192809600810406,2024-10-09 13h50.21.233488 -0600,
62,V,0,None,61,61,0,None,1,,,0,61,61,61,272.11554599998635,,,,,,,,,,272.10192559999996,272.11554599998635,272.11554599998635,272.31530320001184,272.31530320001184,274.1167518000002,None,1,,,,000013,001,2024-10-09_13h48.09.491,cpt_test,2024.2.2,60.192809600810406,2024-10-09 13h50.21.233488 -0600,
63,U,0,None,62,62,0,None,1,,,0,62,62,62,274.1308738999942,,,,,,,,,,274.11692579998635,274.1308738999942,274.1308738999942,274.3140424999874,274.3302706000104,276.11478169998736,None,1,,,,000013,001,2024-10-09_13h48.09.491,cpt_test,2024.2.2,60.192809600810406,2024-10-09 13h50.21.233488 -0600,
64,M,0,None,63,63,0,None,1,,,0,63,63,63,276.12919380000676,,,,,,,,,,276.114936900005,276.12919380000676,276.12919380000676,276.3125354000076,276.32867600000463,278.1133070999931,None,1,,,,000013,001,2024-10-09_13h48.09.491,cpt_test,2024.2.2,60.192809600810406,2024-10-09 13h50.21.233488 -0600,
65,X,1,x,64,64,0,x,1,0.6057075999851804,0.2053926000080537,0,64,64,64,278.12757209999836,,,,,,,,,,278.11346560000675,278.12757209999836,278.12757209999836,278.3105593000073,278.32693320000544,280.11222959999577,x,1,0.6057075999851804,0.2053926000080537,,000013,001,2024-10-09_13h48.09.491,cpt_test,2024.2.2,60.192809600810406,2024-10-09 13h50.21.233488 -0600,
66,A,0,None,65,65,0,None,1,,,0,65,65,65,280.12563319999026,,,,,,,,,,280.11243199999444,280.12563319999026,280.12563319999026,280.3090891999891,280.3252429999993,282.11025769999833,None,1,,,,000013,001,2024-10-09_13h48.09.491,cpt_test,2024.2.2,60.192809600810406,2024-10-09 13h50.21.233488 -0600,
67,N,0,None,66,66,0,None,1,,,0,66,66,66,282.12427050000406,,,,,,,,,,282.11043120000977,282.12427050000406,282.12427050000406,282.30754089998663,282.32391559999087,284.10893710001255,None,1,,,,000013,001,2024-10-09_13h48.09.491,cpt_test,2024.2.2,60.192809600810406,2024-10-09 13h50.21.233488 -0600,
68,H,0,None,67,67,0,None,1,,,0,67,67,67,284.12872629999765,,,,,,,,,,284.1091372999945,284.12872629999765,284.12872629999765,284.3055064000073,284.33882159998757,286.10720800000126,None,1,,,,000013,001,2024-10-09_13h48.09.491,cpt_test,2024.2.2,60.192809600810406,2024-10-09 13h50.21.233488 -0600,
69,A,0,None,68,68,0,None,1,,,0,68,68,68,286.12106209999183,,,,,,,,,,286.1073869999964,286.12106209999183,286.12106209999183,286.30416550001246,286.32032269999036,288.10586139999214,None,1,,,,000013,001,2024-10-09_13h48.09.491,cpt_test,2024.2.2,60.192809600810406,2024-10-09 13h50.21.233488 -0600,
70,X,1,x,69,69,0,x,1,0.6092128000163939,0.14946379998582415,0,69,69,69,288.1190779999888,,,,,,,,,,288.1060642999946,288.1190779999888,288.1190779999888,288.30269979999866,288.31891830000677,290.1033582999953,x,1,0.6092128000163939,0.14946379998582415,,000013,001,2024-10-09_13h48.09.491,cpt_test,2024.2.2,60.192809600810406,2024-10-09 13h50.21.233488 -0600,
71,F,0,None,70,70,0,None,1,,,0,70,70,70,290.1176071999944,,,,,,,,,,290.1035231999995,290.1176071999944,290.1176071999944,290.3009244000132,290.31720530000166,292.1028809999989,None,1,,,,000013,001,2024-10-09_13h48.09.491,cpt_test,2024.2.2,60.192809600810406,2024-10-09 13h50.21.233488 -0600,
72,N,0,None,71,71,0,None,1,,,0,71,71,71,292.11579979999806,,,,,,,,,,292.10310020000907,292.11579979999806,292.11579979999806,292.31508999998914,292.31508999998914,294.10078899998916,None,1,,,,000013,001,2024-10-09_13h48.09.491,cpt_test,2024.2.2,60.192809600810406,2024-10-09 13h50.21.233488 -0600,
73,K,0,None,72,72,0,None,1,,,0,72,72,72,294.1140002000029,,,,,,,,,,294.1009856000019,294.1140002000029,294.1140002000029,294.3137829999905,294.3137829999905,296.1149500999891,None,1,,,,000013,001,2024-10-09_13h48.09.491,cpt_test,2024.2.2,60.192809600810406,2024-10-09 13h50.21.233488 -0600,
74,Y,0,None,73,73,0,None,1,,,0,73,73,73,296.12946699999156,,,,,,,,,,296.11510510000517,296.12946699999156,296.12946699999156,296.31233759998577,296.3289739000029,298.1140188999998,None,1,,,,000013,001,2024-10-09_13h48.09.491,cpt_test,2024.2.2,60.192809600810406,2024-10-09 13h50.21.233488 -0600,
75,Y,0,None,74,74,0,None,1,,,0,74,74,74,298.1277332000027,,,,,,,,,,298.11420059998636,298.1277332000027,298.1277332000027,298.31093659999897,298.3271673999843,300.1120369999844,None,1,,,,000013,001,2024-10-09_13h48.09.491,cpt_test,2024.2.2,60.192809600810406,2024-10-09 13h50.21.233488 -0600,
76,R,0,None,75,75,0,None,1,,,0,75,75,75,300.125904799992,,,,,,,,,,300.1122129999858,300.125904799992,300.125904799992,300.3091942000028,300.3256712000002,302.11044879999827,None,1,,,,000013,001,2024-10-09_13h48.09.491,cpt_test,2024.2.2,60.192809600810406,2024-10-09 13h50.21.233488 -0600,
77,X,1,x,76,76,0,x,1,0.42812720002257265,0.21081129999947734,0,76,76,76,302.1242084999976,,,,,,,,,,302.1106201999937,302.1242084999976,302.1242084999976,302.30759780001245,302.32397329999367,304.1085888000089,x,1,0.42812720002257265,0.21081129999947734,,000013,001,2024-10-09_13h48.09.491,cpt_test,2024.2.2,60.192809600810406,2024-10-09 13h50.21.233488 -0600,
78,R,0,None,77,77,0,None,1,,,0,77,77,77,304.1228218000033,,,,,,,,,,304.1087705999962,304.1228218000033,304.1228218000033,304.3056798999896,304.3221438000037,306.107445200003,None,1,,,,000013,001,2024-10-09_13h48.09.491,cpt_test,2024.2.2,60.192809600810406,2024-10-09 13h50.21.233488 -0600,
79,F,0,None,78,78,0,None,1,,,0,78,78,78,306.1211670000048,,,,,,,,,,306.107637100009,306.1211670000048,306.1211670000048,306.304255199997,306.32068440000876,308.1059949999908,None,1,,,,000013,001,2024-10-09_13h48.09.491,cpt_test,2024.2.2,60.192809600810406,2024-10-09 13h50.21.233488 -0600,
80,K,0,None,79,79,0,None,1,,,0,79,79,79,308.11948930000653,,,,,,,,,,308.10619640001096,308.11948930000653,308.11948930000653,308.3026591000089,308.31902180000907,310.10435300000245,None,1,,,,000013,001,2024-10-09_13h48.09.491,cpt_test,2024.2.2,60.192809600810406,2024-10-09 13h50.21.233488 -0600,
81,O,0,None,80,80,0,None,1,,,0,80,80,80,310.11765359999845,,,,,,,,,,310.1045621999947,310.11765359999845,310.11765359999845,310.301146599988,310.31733130000066,312.10261870000977,None,1,,,,000013,001,2024-10-09_13h48.09.491,cpt_test,2024.2.2,60.192809600810406,2024-10-09 13h50.21.233488 -0600,
82,F,0,None,81,81,0,None,1,,,0,81,81,81,312.1164718999935,,,,,,,,,,312.10283690001233,312.1164718999935,312.1164718999935,312.31580199999735,312.31580199999735,314.10118229998625,None,1,,,,000013,001,2024-10-09_13h48.09.491,cpt_test,2024.2.2,60.192809600810406,2024-10-09 13h50.21.233488 -0600,
83,F,0,None,82,82,0,None,1,,,0,82,82,82,314.1145411999896,,,,,,,,,,314.10138390000793,314.1145411999896,314.1145411999896,314.31383020000067,314.31383020000067,316.1162449000112,None,1,,,,000013,001,2024-10-09_13h48.09.491,cpt_test,2024.2.2,60.192809600810406,2024-10-09 13h50.21.233488 -0600,
84,W,0,None,83,83,0,None,1,,,0,83,83,83,316.13817859999835,,,,,,,,,,316.1164768000017,316.13817859999835,316.13817859999835,316.3126518999925,316.3459293000051,318.1141709999938,None,1,,,,000013,001,2024-10-09_13h48.09.491,cpt_test,2024.2.2,60.192809600810406,2024-10-09 13h50.21.233488 -0600,
85,X,1,x,84,84,0,x,1,0.4859387000033166,0.2535306999925524,0,84,84,84,318.1279497999931,,,,,,,,,,318.1143485000066,318.1279497999931,318.1279497999931,318.31109959998867,318.32737640000414,320.1132973000058,x,1,0.4859387000033166,0.2535306999925524,,000013,001,2024-10-09_13h48.09.491,cpt_test,2024.2.2,60.192809600810406,2024-10-09 13h50.21.233488 -0600,
86,J,0,None,85,85,0,None,1,,,0,85,85,85,320.1262677999912,,,,,,,,,,320.1135377000028,320.1262677999912,320.1262677999912,320.30921869998565,320.32562920000055,322.1111234999844,None,1,,,,000013,001,2024-10-09_13h48.09.491,cpt_test,2024.2.2,60.192809600810406,2024-10-09 13h50.21.233488 -0600,
87,N,0,None,86,86,0,None,1,,,0,86,86,86,322.1244349000044,,,,,,,,,,322.1113158999942,322.1244349000044,322.1244349000044,322.30796649999684,322.32413379999343,324.10935779998545,None,1,,,,000013,001,2024-10-09_13h48.09.491,cpt_test,2024.2.2,60.192809600810406,2024-10-09 13h50.21.233488 -0600,
88,X,1,x,87,87,0,x,1,0.5644373999966774,0.1865512999938801,0,87,87,87,324.12272200000007,,,,,,,,,,324.1095425999956,324.12272200000007,324.12272200000007,324.3062743000046,324.32243910001125,326.1079377999995,x,1,0.5644373999966774,0.1865512999938801,,000013,001,2024-10-09_13h48.09.491,cpt_test,2024.2.2,60.192809600810406,2024-10-09 13h50.21.233488 -0600,
89,T,0,None,88,88,0,None,1,,,0,88,88,88,326.1210243999958,,,,,,,,,,326.10814669998945,326.1210243999958,326.1210243999958,326.3044920999964,326.3208609999856,328.1059722999926,None,1,,,,000013,001,2024-10-09_13h48.09.491,cpt_test,2024.2.2,60.192809600810406,2024-10-09 13h50.21.233488 -0600,
90,I,0,None,89,89,0,None,1,,,0,89,89,89,328.1193945000123,,,,,,,,,,328.1061586999858,328.1193945000123,328.1193945000123,328.3025161999976,328.3190385999915,330.1041574999981,None,1,,,,000013,001,2024-10-09_13h48.09.491,cpt_test,2024.2.2,60.192809600810406,2024-10-09 13h50.21.233488 -0600,
91,P,0,None,90,90,0,None,1,,,0,90,90,90,330.1178445999976,,,,,,,,,,330.1043461000081,330.1178445999976,330.1178445999976,330.30109729999094,330.31757089999155,332.102876799996,None,1,,,,000013,001,2024-10-09_13h48.09.491,cpt_test,2024.2.2,60.192809600810406,2024-10-09 13h50.21.233488 -0600,
92,X,1,x,91,91,0,x,1,0.4607499999983702,0.18206789999385364,0,91,91,91,332.1161524000054,,,,,,,,,,332.1031312000123,332.1161524000054,332.1161524000054,332.2993421999854,332.3156908999954,334.10143139999127,x,1,0.4607499999983702,0.18206789999385364,,000013,001,2024-10-09_13h48.09.491,cpt_test,2024.2.2,60.192809600810406,2024-10-09 13h50.21.233488 -0600,
93,B,0,None,92,92,0,None,1,,,0,92,92,92,334.1145363000105,,,,,,,,,,334.101648699987,334.1145363000105,334.1145363000105,334.31437489998643,334.31437489998643,336.116116899997,None,1,,,,000013,001,2024-10-09_13h48.09.491,cpt_test,2024.2.2,60.192809600810406,2024-10-09 13h50.21.233488 -0600,
94,M,0,None,93,93,0,None,1,,,0,93,93,93,336.12980600001174,,,,,,,,,,336.11631599999964,336.12980600001174,336.12980600001174,336.31302689999575,336.32935310000903,338.1146090000111,None,1,,,,000013,001,2024-10-09_13h48.09.491,cpt_test,2024.2.2,60.192809600810406,2024-10-09 13h50.21.233488 -0600,
95,B,0,None,94,94,0,None,1,,,0,94,94,94,338.1280748999852,,,,,,,,,,338.11480859998846,338.1280748999852,338.1280748999852,338.31107920000795,338.3274523,340.1130574000126,None,1,,,,000013,001,2024-10-09_13h48.09.491,cpt_test,2024.2.2,60.192809600810406,2024-10-09 13h50.21.233488 -0600,
96,I,0,None,95,95,0,None,1,,,0,95,95,95,340.1263168999867,,,,,,,,,,340.11326710000867,340.1263168999867,340.1263168999867,340.3093885999988,340.32604320000974,342.1113759999862,None,1,,,,000013,001,2024-10-09_13h48.09.491,cpt_test,2024.2.2,60.192809600810406,2024-10-09 13h50.21.233488 -0600,
97,X,1,x,96,96,0,x,1,0.7198119999957271,0.15979720000177622,0,96,96,96,342.12456989998464,,,,,,,,,,342.1115737000073,342.12456989998464,342.12456989998464,342.30799209998804,342.3242489999975,344.1115346000006,x,1,0.7198119999957271,0.15979720000177622,344.1068432999891,000013,001,2024-10-09_13h48.09.491,cpt_test,2024.2.2,60.192809600810406,2024-10-09 13h50.21.233488 -0600,
98,J,0,None,97,97,0,None,1,,,0,97,97,97,344.12357090000296,,,,,,,,,,344.1118007999903,344.12357090000296,344.12357090000296,344.3085989000101,344.3225259000028,346.10776019998593,None,1,,,,000013,001,2024-10-09_13h48.09.491,cpt_test,2024.2.2,60.192809600810406,2024-10-09 13h50.21.233488 -0600,
99,X,1,x,98,98,0,x,1,0.5642573999939486,0.17232309997780249,0,98,98,98,346.12157930000103,,,,,,,,,,346.1079530999996,346.12157930000103,346.12157930000103,346.3045936000126,346.3210793999897,348.1063460999867,x,1,0.5642573999939486,0.17232309997780249,,000013,001,2024-10-09_13h48.09.491,cpt_test,2024.2.2,60.192809600810406,2024-10-09 13h50.21.233488 -0600,
100,U,0,None,99,99,0,None,1,,,0,99,99,99,348.119641199999,,,,,,,,,,348.10653769999044,348.119641199999,348.119641199999,348.3031079999928,348.31929200000013,350.1052335000131,None,1,,,,000013,001,2024-10-09_13h48.09.491,cpt_test,2024.2.2,60.192809600810406,2024-10-09 13h50.21.233488 -0600,
101,D,0,None,100,100,0,None,1,,,0,100,100,100,350.1182234000007,,,,,,,,,,350.10546140000224,350.1182234000007,350.1182234000007,350.30146109999623,350.3176061999984,352.10312789998716,None,1,,,,000013,001,2024-10-09_13h48.09.491,cpt_test,2024.2.2,60.192809600810406,2024-10-09 13h50.21.233488 -0600,
102,X,1,x,101,101,0,x,1,0.5278301000071224,0.1666255000163801,0,101,101,101,352.11656900000526,,,,,,,,,,352.10332249998464,352.11656900000526,352.11656900000526,352.2999734999903,352.3160164000001,354.10069279998424,x,1,0.5278301000071224,0.1666255000163801,,000013,001,2024-10-09_13h48.09.491,cpt_test,2024.2.2,60.192809600810406,2024-10-09 13h50.21.233488 -0600,
103,X,1,x,102,102,0,x,1,0.4819949000084307,0.19716179999522865,0,102,102,102,354.1150493999885,,,,,,,,,,354.10085550000076,354.1150493999885,354.1150493999885,354.31435569998575,354.31435569998575,356.11583480000263,x,1,0.4819949000084307,0.19716179999522865,,000013,001,2024-10-09_13h48.09.491,cpt_test,2024.2.2,60.192809600810406,2024-10-09 13h50.21.233488 -0600,
104,N,0,None,103,103,0,None,1,,,0,103,103,103,356.1299743000127,,,,,,,,,,356.11600449998514,356.1299743000127,356.1299743000127,356.3131848000048,356.32946660000016,358.11417680000886,None,1,,,,000013,001,2024-10-09_13h48.09.491,cpt_test,2024.2.2,60.192809600810406,2024-10-09 13h50.21.233488 -0600,
105,U,0,None,104,104,0,None,1,,,0,104,104,104,358.1284476000001,,,,,,,,,,358.11433290000423,358.1284476000001,358.1284476000001,358.3111695999978,358.327698899986,360.11361540001235,None,1,,,,000013,001,2024-10-09_13h48.09.491,cpt_test,2024.2.2,60.192809600810406,2024-10-09 13h50.21.233488 -0600,
106,T,0,None,105,105,0,None,1,,,0,105,105,105,360.12666989999707,,,,,,,,,,360.11375379998935,360.12666989999707,360.12666989999707,360.3100274000026,360.32615909999004,362.11156680001295,None,1,,,,000013,001,2024-10-09_13h48.09.491,cpt_test,2024.2.2,60.192809600810406,2024-10-09 13h50.21.233488 -0600,
107,W,0,None,106,106,0,None,1,,,0,106,106,106,362.124874000001,,,,,,,,,,362.1117787999974,362.124874000001,362.124874000001,362.3084250999964,362.32431669998914,364.10951690000365,None,1,,,,000013,001,2024-10-09_13h48.09.491,cpt_test,2024.2.2,60.192809600810406,2024-10-09 13h50.21.233488 -0600,
108,N,0,None,107,107,0,None,1,,,0,107,107,107,364.12336289999075,,,,,,,,,,364.1096955999965,364.12336289999075,364.12336289999075,364.3066058999975,364.3228330000129,366.10810219999985,None,1,,,,000013,001,2024-10-09_13h48.09.491,cpt_test,2024.2.2,60.192809600810406,2024-10-09 13h50.21.233488 -0600,
109,R,0,None,108,108,0,None,1,,,0,108,108,108,366.1217902000062,,,,,,,,,,366.1082796000119,366.1217902000062,366.1217902000062,366.3046796999988,366.3213257000025,368.1069048999925,None,1,,,,000013,001,2024-10-09_13h48.09.491,cpt_test,2024.2.2,60.192809600810406,2024-10-09 13h50.21.233488 -0600,
110,X,1,x,109,109,0,x,1,0.5446340999915265,0.23745310000958852,0,109,109,109,368.12011899999925,,,,,,,,,,368.1071271999972,368.12011899999925,368.12011899999925,368.303090100002,368.31942340001115,370.10490750000463,x,1,0.5446340999915265,0.23745310000958852,,000013,001,2024-10-09_13h48.09.491,cpt_test,2024.2.2,60.192809600810406,2024-10-09 13h50.21.233488 -0600,
111,A,0,None,110,110,0,None,1,,,0,110,110,110,370.1184459000069,,,,,,,,,,370.10510819999035,370.1184459000069,370.1184459000069,370.3015352000075,370.3177583999932,372.10348009999143,None,1,,,,000013,001,2024-10-09_13h48.09.491,cpt_test,2024.2.2,60.192809600810406,2024-10-09 13h50.21.233488 -0600,
112,X,1,x,111,111,0,x,1,0.6094381000148132,0.21747099998174235,0,111,111,111,372.1168059000047,,,,,,,,,,372.10370770000736,372.1168059000047,372.1168059000047,372.2999196999881,372.3163590999902,374.1021456999879,x,1,0.6094381000148132,0.21747099998174235,,000013,001,2024-10-09_13h48.09.491,cpt_test,2024.2.2,60.192809600810406,2024-10-09 13h50.21.233488 -0600,
113,G,0,None,112,112,0,None,1,,,0,112,112,112,374.11517710000044,,,,,,,,,,374.1023813000065,374.11517710000044,374.11517710000044,374.31444059999194,374.31444059999194,376.11669610001263,None,1,,,,000013,001,2024-10-09_13h48.09.491,cpt_test,2024.2.2,60.192809600810406,2024-10-09 13h50.21.233488 -0600,
114,O,0,None,113,113,0,None,1,,,0,113,113,113,376.13021840000874,,,,,,,,,,376.1169007999997,376.13021840000874,376.13021840000874,376.31329600000754,376.32945109999855,378.1151586000051,None,1,,,,000013,001,2024-10-09_13h48.09.491,cpt_test,2024.2.2,60.192809600810406,2024-10-09 13h50.21.233488 -0600,
115,U,0,None,114,114,0,None,1,,,0,114,114,114,378.12834689999,,,,,,,,,,378.1153662999859,378.12834689999,378.12834689999,378.31146420000005,378.32803589999094,380.1131045999937,None,1,,,,000013,001,2024-10-09_13h48.09.491,cpt_test,2024.2.2,60.192809600810406,2024-10-09 13h50.21.233488 -0600,
116,X,1,x,115,115,0,x,1,0.5481605000095442,0.15004370000679046,0,115,115,115,380.1265598000027,,,,,,,,,,380.11329330000444,380.1265598000027,380.1265598000027,380.3099374999874,380.32635359998676,382.1117981999996,x,1,0.5481605000095442,0.15004370000679046,,000013,001,2024-10-09_13h48.09.491,cpt_test,2024.2.2,60.192809600810406,2024-10-09 13h50.21.233488 -0600,
117,X,1,x,116,116,0,x,1,0.5231361000041943,0.16680999999516644,0,116,116,116,382.12518380000256,,,,,,,,,,382.1120155999961,382.12518380000256,382.12518380000256,382.30831829999806,382.3247046000033,384.1097245999845,x,1,0.5231361000041943,0.16680999999516644,,000013,001,2024-10-09_13h48.09.491,cpt_test,2024.2.2,60.192809600810406,2024-10-09 13h50.21.233488 -0600,
118,C,0,None,117,117,0,None,1,,,0,117,117,117,384.12359339999966,,,,,,,,,,384.1099123999884,384.12359339999966,384.12359339999966,384.30670879999525,384.3230218999961,386.10801180001,None,1,,,,000013,001,2024-10-09_13h48.09.491,cpt_test,2024.2.2,60.192809600810406,2024-10-09 13h50.21.233488 -0600,
119,A,0,None,118,118,0,None,1,,,0,118,118,118,386.12177850000444,,,,,,,,,,386.10818959999597,386.12177850000444,386.12177850000444,386.3051170000108,386.3214670000016,388.10634229998686,None,1,,,,000013,001,2024-10-09_13h48.09.491,cpt_test,2024.2.2,60.192809600810406,2024-10-09 13h50.21.233488 -0600,
120,X,1,x,119,119,0,None,0,,,0,119,119,119,388.12004780001007,,,,,,,,,,388.10652010000194,388.12004780001007,388.12004780001007,388.30350710000494,388.31998790000216,390.1056688000099,None,0,,,,000013,001,2024-10-09_13h48.09.491,cpt_test,2024.2.2,60.192809600810406,2024-10-09 13h50.21.233488 -0600,
121,H,0,None,120,120,0,None,1,,,0,120,120,120,390.11855959999957,,,,,,,,,,390.1058983000112,390.11855959999957,390.11855959999957,390.30159899999853,390.31806349998806,392.1035818000091,None,1,,,,000013,001,2024-10-09_13h48.09.491,cpt_test,2024.2.2,60.192809600810406,2024-10-09 13h50.21.233488 -0600,
122,M,0,None,121,121,0,None,1,,,0,121,121,121,392.11693739998736,,,,,,,,,,392.1037805000087,392.11693739998736,392.11693739998736,392.3002177999879,392.3162888000079,394.1017722999968,None,1,,,,000013,001,2024-10-09_13h48.09.491,cpt_test,2024.2.2,60.192809600810406,2024-10-09 13h50.21.233488 -0600,
123,V,0,None,122,122,0,None,1,,,0,122,122,122,394.1151052000059,,,,,,,,,,394.1020314999914,394.1151052000059,394.1151052000059,394.31491310001,394.31491310001,396.11686519999057,None,1,,,,000013,001,2024-10-09_13h48.09.491,cpt_test,2024.2.2,60.192809600810406,2024-10-09 13h50.21.233488 -0600,
124,K,0,None,123,123,0,None,1,,,0,123,123,123,396.1299662000092,,,,,,,,,,396.1170587000088,396.1299662000092,396.1299662000092,396.3131835999957,396.3298044000112,398.1140790999925,None,1,,,,000013,001,2024-10-09_13h48.09.491,cpt_test,2024.2.2,60.192809600810406,2024-10-09 13h50.21.233488 -0600,
125,G,0,None,124,124,0,None,1,,,0,124,124,124,398.12893790000817,,,,,,,,,,398.11421639999026,398.12893790000817,398.12893790000817,398.31161810000776,398.3280248999945,400.1130017999967,None,1,,,,000013,001,2024-10-09_13h48.09.491,cpt_test,2024.2.2,60.192809600810406,2024-10-09 13h50.21.233488 -0600,
126,A,0,None,125,125,0,None,1,,,0,125,125,125,400.1268576000002,,,,,,,,,,400.1131691999908,400.1268576000002,400.1268576000002,400.3100224999944,400.32661079999525,402.1108215000131,None,1,,,,000013,001,2024-10-09_13h48.09.491,cpt_test,2024.2.2,60.192809600810406,2024-10-09 13h50.21.233488 -0600,
127,X,1,x,126,126,0,x,1,0.5651786999951582,0.1863399000139907,0,126,126,126,402.12541310000233,,,,,,,,,,402.1109674999898,402.12541310000233,402.12541310000233,402.3085870000068,402.324784299999,404.1101963999972,x,1,0.5651786999951582,0.1863399000139907,,000013,001,2024-10-09_13h48.09.491,cpt_test,2024.2.2,60.192809600810406,2024-10-09 13h50.21.233488 -0600,
128,N,0,None,127,127,0,None,1,,,0,127,127,127,404.1238097999885,,,,,,,,,,404.1103992999997,404.1238097999885,404.1238097999885,404.30695150000975,404.3232200999919,406.10860179999145,None,1,,,,000013,001,2024-10-09_13h48.09.491,cpt_test,2024.2.2,60.192809600810406,2024-10-09 13h50.21.233488 -0600,
129,Y,0,None,128,128,0,None,1,,,0,128,128,128,406.12199139999575,,,,,,,,,,406.10879140000907,406.12199139999575,406.12199139999575,406.3054053999949,406.32165359999635,408.106186399993,None,1,,,,000013,001,2024-10-09_13h48.09.491,cpt_test,2024.2.2,60.192809600810406,2024-10-09 13h50.21.233488 -0600,
130,W,0,None,129,129,0,None,1,,,0,129,129,129,408.1202632999921,,,,,,,,,,408.10636790000717,408.1202632999921,408.1202632999921,408.30365039999015,408.319906299992,410.1059913999925,None,1,,,,000013,001,2024-10-09_13h48.09.491,cpt_test,2024.2.2,60.192809600810406,2024-10-09 13h50.21.233488 -0600,
131,L,0,None,130,130,0,None,1,,,0,130,130,130,410.1186127999972,,,,,,,,,,410.10622590000276,410.1186127999972,410.1186127999972,410.301988399995,410.31847589998506,412.10354089998873,None,1,,,,000013,001,2024-10-09_13h48.09.491,cpt_test,2024.2.2,60.192809600810406,2024-10-09 13h50.21.233488 -0600,
132,F,0,None,131,131,0,None,1,,,0,131,131,131,412.11709859999246,,,,,,,,,,412.1037382000068,412.11709859999246,412.11709859999246,412.3001660000009,412.3168039000011,414.1021163999976,None,1,,,,000013,001,2024-10-09_13h48.09.491,cpt_test,2024.2.2,60.192809600810406,2024-10-09 13h50.21.233488 -0600,
133,E,0,None,132,132,0,None,1,,,0,132,132,132,414.11552530000336,,,,,,,,,,414.1023150999972,414.11552530000336,414.11552530000336,414.31466149998596,414.31466149998596,416.1166749999975,None,1,,,,000013,001,2024-10-09_13h48.09.491,cpt_test,2024.2.2,60.192809600810406,2024-10-09 13h50.21.233488 -0600,
134,L,0,None,133,133,0,None,1,,,0,133,133,133,416.1302996999875,,,,,,,,,,416.11684639999294,416.1302996999875,416.1302996999875,416.3135496999894,416.3298993000062,418.1147573000053,None,1,,,,000013,001,2024-10-09_13h48.09.491,cpt_test,2024.2.2,60.192809600810406,2024-10-09 13h50.21.233488 -0600,
135,K,0,None,134,134,0,None,1,,,0,134,134,134,418.12883470000816,,,,,,,,,,418.11491030000616,418.12883470000816,418.12883470000816,418.3120820999902,418.32833910000045,420.11333029999514,None,1,,,,000013,001,2024-10-09_13h48.09.491,cpt_test,2024.2.2,60.192809600810406,2024-10-09 13h50.21.233488 -0600,
136,Q,0,None,135,135,0,None,1,,,0,135,135,135,420.1271812999912,,,,,,,,,,420.11350959999254,420.1271812999912,420.1271812999912,420.3104261000117,420.3267644000007,422.1120414999896,None,1,,,,000013,001,2024-10-09_13h48.09.491,cpt_test,2024.2.2,60.192809600810406,2024-10-09 13h50.21.233488 -0600,
137,X,1,x,136,136,0,x,1,0.6360428000043612,0.17142230001627468,0,136,136,136,422.1255399000074,,,,,,,,,,422.1122381000023,422.1255399000074,422.1255399000074,422.30848569999216,422.3249455000041,424.11060819998966,x,1,0.6360428000043612,0.17142230001627468,,000013,001,2024-10-09_13h48.09.491,cpt_test,2024.2.2,60.192809600810406,2024-10-09 13h50.21.233488 -0600,
138,J,0,None,137,137,0,None,1,,,0,137,137,137,424.12389670000994,,,,,,,,,,424.1108246000076,424.12389670000994,424.12389670000994,424.307055399986,424.3233072999865,426.1082055000006,None,1,,,,000013,001,2024-10-09_13h48.09.491,cpt_test,2024.2.2,60.192809600810406,2024-10-09 13h50.21.233488 -0600,
139,X,1,x,138,138,0,x,1,0.7959206000086851,0.09491539999726228,0,138,138,138,426.12199939999846,,,,,,,,,,426.1083873999887,426.12199939999846,426.12199939999846,426.30555280001136,426.32188309999765,428.1072642999934,x,1,0.7959206000086851,0.09491539999726228,,000013,001,2024-10-09_13h48.09.491,cpt_test,2024.2.2,60.192809600810406,2024-10-09 13h50.21.233488 -0600,
140,E,0,None,139,139,0,None,1,,,0,139,139,139,428.1209310000122,,,,,,,,,,428.10746880000806,428.1209310000122,428.1209310000122,428.303528599994,428.3201316999912,430.1056537000113,None,1,,,,000013,001,2024-10-09_13h48.09.491,cpt_test,2024.2.2,60.192809600810406,2024-10-09 13h50.21.233488 -0600,
141,T,0,None,140,140,0,None,1,,,0,140,140,140,430.11870039999485,,,,,,,,,,430.10585260001244,430.11870039999485,430.11870039999485,430.30210870000883,430.318489199999,432.10350589998416,None,1,,,,000013,001,2024-10-09_13h48.09.491,cpt_test,2024.2.2,60.192809600810406,2024-10-09 13h50.21.233488 -0600,
142,X,1,x,141,141,0,x,1,0.6217539999925066,0.1399505000154022,0,141,141,141,432.11722409998765,,,,,,,,,,432.1036819999863,432.11722409998765,432.11722409998765,432.3003270000045,432.3169455000025,434.10223560000304,x,1,0.6217539999925066,0.1399505000154022,,000013,001,2024-10-09_13h48.09.491,cpt_test,2024.2.2,60.192809600810406,2024-10-09 13h50.21.233488 -0600,
143,Q,0,None,142,142,0,None,1,,,0,142,142,142,434.1157680999895,,,,,,,,,,434.10244280000916,434.1157680999895,434.1157680999895,434.31526830000803,434.31526830000803,436.11753640000825,None,1,,,,000013,001,2024-10-09_13h48.09.491,cpt_test,2024.2.2,60.192809600810406,2024-10-09 13h50.21.233488 -0600,
144,V,0,None,143,143,0,None,1,,,0,143,143,143,436.1307289999968,,,,,,,,,,436.11774359998526,436.1307289999968,436.1307289999968,436.3139474999916,436.3302587000071,438.11531580000883,None,1,,,,000013,001,2024-10-09_13h48.09.491,cpt_test,2024.2.2,60.192809600810406,2024-10-09 13h50.21.233488 -0600,
145,Y,0,None,144,144,0,None,1,,,0,144,144,144,438.1291055000038,,,,,,,,,,438.1155143000069,438.1291055000038,438.1291055000038,438.3122860000003,438.32836129999487,440.1140011000098,None,1,,,,000013,001,2024-10-09_13h48.09.491,cpt_test,2024.2.2,60.192809600810406,2024-10-09 13h50.21.233488 -0600,
146,O,0,None,145,145,0,None,1,,,0,145,145,145,440.1276414000022,,,,,,,,,,440.11420680000447,440.1276414000022,440.1276414000022,440.31046599999536,440.32680099998834,442.1117123999866,None,1,,,,000013,001,2024-10-09_13h48.09.491,cpt_test,2024.2.2,60.192809600810406,2024-10-09 13h50.21.233488 -0600,
147,T,0,None,146,146,0,None,1,,,0,146,146,146,442.1256235000037,,,,,,,,,,442.11187699998845,442.1256235000037,442.1256235000037,442.30896799999755,442.3253865999868,444.1096707000106,None,1,,,,000013,001,2024-10-09_13h48.09.491,cpt_test,2024.2.2,60.192809600810406,2024-10-09 13h50.21.233488 -0600,
148,X,1,x,147,147,0,x,1,0.8374973999743816,0.09825690000434406,0,147,147,147,444.1242760999885,,,,,,,,,,444.1098090999876,444.1242760999885,444.1242760999885,444.307273399987,444.3234155999962,446.10877540000365,x,1,0.8374973999743816,0.09825690000434406,,000013,001,2024-10-09_13h48.09.491,cpt_test,2024.2.2,60.192809600810406,2024-10-09 13h50.21.233488 -0600,
149,T,0,None,148,148,0,None,1,,,0,148,148,148,446.12228139999206,,,,,,,,,,446.1089692999958,446.12228139999206,446.12228139999206,446.30547749999096,446.32195760001196,448.1072275000042,None,1,,,,000013,001,2024-10-09_13h48.09.491,cpt_test,2024.2.2,60.192809600810406,2024-10-09 13h50.21.233488 -0600,
150,S,0,None,149,149,0,None,1,,,0,149,149,149,448.1207914999977,,,,,,,,,,448.1074293999991,448.1207914999977,448.1207914999977,448.30413319999934,448.3205108999973,450.10567590000574,None,1,,,,000013,001,2024-10-09_13h48.09.491,cpt_test,2024.2.2,60.192809600810406,2024-10-09 13h50.21.233488 -0600,
151,L,0,None,150,150,0,None,1,,,0,150,150,150,450.1191473999934,,,,,,,,,,450.1058819000027,450.1191473999934,450.1191473999934,450.3021391000075,450.3185252000112,452.1038910000061,None,1,,,,000013,001,2024-10-09_13h48.09.491,cpt_test,2024.2.2,60.192809600810406,2024-10-09 13h50.21.233488 -0600,
152,V,0,None,151,151,0,None,1,,,0,151,151,151,452.1172765000083,,,,,,,,,,452.1040648999915,452.1172765000083,452.1172765000083,452.3006192999892,452.3170199999877,454.10217940001166,None,1,,,,000013,001,2024-10-09_13h48.09.491,cpt_test,2024.2.2,60.192809600810406,2024-10-09 13h50.21.233488 -0600,
153,C,0,None,152,152,0,None,1,,,0,152,152,152,454.1159045000095,,,,,,,,,,454.1023537000001,454.1159045000095,454.1159045000095,454.3152360999957,454.3152360999957,456.1007207999937,None,1,,,,000013,001,2024-10-09_13h48.09.491,cpt_test,2024.2.2,60.192809600810406,2024-10-09 13h50.21.233488 -0600,
154,U,0,None,153,153,0,None,1,,,0,153,153,153,456.11439000000246,,,,,,,,,,456.10093680000864,456.11439000000246,456.11439000000246,456.31373940000776,456.31373940000776,458.11594210000476,None,1,,,,000013,001,2024-10-09_13h48.09.491,cpt_test,2024.2.2,60.192809600810406,2024-10-09 13h50.21.233488 -0600,
155,X,1,x,154,154,0,x,1,0.8151754999998957,0.08995390002382919,0,154,154,154,458.1291826000088,,,,,,,,,,458.116141800012,458.1291826000088,458.1291826000088,458.3122097000014,458.3287879000127,460.11352409998653,x,1,0.8151754999998957,0.08995390002382919,,000013,001,2024-10-09_13h48.09.491,cpt_test,2024.2.2,60.192809600810406,2024-10-09 13h50.21.233488 -0600,
156,X,1,x,155,155,0,x,1,0.6759403000178281,0.08811139999306761,0,155,155,155,460.1276131999912,,,,,,,,,,460.1137107000104,460.1276131999912,460.1276131999912,460.31076870000106,460.3269449000072,462.11268729998847,x,1,0.6759403000178281,0.08811139999306761,,000013,001,2024-10-09_13h48.09.491,cpt_test,2024.2.2,60.192809600810406,2024-10-09 13h50.21.233488 -0600,
157,L,0,None,156,156,0,None,1,,,0,156,156,156,462.1259396999958,,,,,,,,,,462.11291629998595,462.1259396999958,462.1259396999958,462.3090694999846,462.32529700000305,464.1103495999996,None,1,,,,000013,001,2024-10-09_13h48.09.491,cpt_test,2024.2.2,60.192809600810406,2024-10-09 13h50.21.233488 -0600,
158,W,0,None,157,157,0,None,1,,,0,157,157,157,464.1244275000063,,,,,,,,,,464.11053679999895,464.1244275000063,464.1244275000063,464.3076133999857,464.323874099995,466.1090200000035,None,1,,,,000013,001,2024-10-09_13h48.09.491,cpt_test,2024.2.2,60.192809600810406,2024-10-09 13h50.21.233488 -0600,
159,A,0,None,158,158,0,None,1,,,0,158,158,158,466.1226999000064,,,,,,,,,,466.109211300005,466.1226999000064,466.1226999000064,466.30555439999443,466.32201870001154,468.1073975999898,None,1,,,,000013,001,2024-10-09_13h48.09.491,cpt_test,2024.2.2,60.192809600810406,2024-10-09 13h50.21.233488 -0600,
160,X,1,x,159,159,0,x,1,0.6988433000224177,0.0884139999980107,0,159,159,159,468.1213118000014,,,,,,,,,,468.1075969999947,468.1213118000014,468.1213118000014,468.3043567999848,468.32047149998834,470.1051383999875,x,1,0.6988433000224177,0.0884139999980107,,000013,001,2024-10-09_13h48.09.491,cpt_test,2024.2.2,60.192809600810406,2024-10-09 13h50.21.233488 -0600,
161,A,0,None,160,160,0,None,1,,,0,160,160,160,470.11937540001236,,,,,,,,,,470.10532110001077,470.11937540001236,470.11937540001236,470.3023702999926,470.31893569999374,472.1039044999925,None,1,,,,000013,001,2024-10-09_13h48.09.491,cpt_test,2024.2.2,60.192809600810406,2024-10-09 13h50.21.233488 -0600,
162,M,0,None,161,161,0,None,1,,,0,161,161,161,472.1176354000054,,,,,,,,,,472.1040922999964,472.1176354000054,472.1176354000054,472.3007256000128,472.31707409999217,474.1027139000071,None,1,,,,000013,001,2024-10-09_13h48.09.491,cpt_test,2024.2.2,60.192809600810406,2024-10-09 13h50.21.233488 -0600,
163,X,1,x,162,162,0,x,1,0.516457799996715,0.15982860000804067,0,162,162,162,474.11583090000204,,,,,,,,,,474.1029218999902,474.11583090000204,474.11583090000204,474.3155986999918,474.3155986999918,476.1167484000034,x,1,0.516457799996715,0.15982860000804067,,000013,001,2024-10-09_13h48.09.491,cpt_test,2024.2.2,60.192809600810406,2024-10-09 13h50.21.233488 -0600,
164,X,1,x,163,163,0,x,1,0.5389128000242636,0.15996759998961352,0,163,163,163,476.1312192000041,,,,,,,,,,476.11690200000885,476.1312192000041,476.1312192000041,476.31437539999024,476.3306946000084,478.11536019999767,x,1,0.5389128000242636,0.15996759998961352,,000013,001,2024-10-09_13h48.09.491,cpt_test,2024.2.2,60.192809600810406,2024-10-09 13h50.21.233488 -0600,
165,K,0,None,164,164,0,None,1,,,0,164,164,164,478.12919460001285,,,,,,,,,,478.1155396999966,478.12919460001285,478.12919460001285,478.31242510001175,478.3290574999992,480.1144984999846,None,1,,,,000013,001,2024-10-09_13h48.09.491,cpt_test,2024.2.2,60.192809600810406,2024-10-09 13h50.21.233488 -0600,
166,X,1,x,165,165,0,x,1,0.6293451000237837,0.1572812999947928,0,165,165,165,480.12774500000523,,,,,,,,,,480.11472640000284,480.12774500000523,480.12774500000523,480.31092449999414,480.3273229000042,482.11248169999453,x,1,0.6293451000237837,0.1572812999947928,,000013,001,2024-10-09_13h48.09.491,cpt_test,2024.2.2,60.192809600810406,2024-10-09 13h50.21.233488 -0600,
167,M,0,None,166,166,0,None,1,,,0,166,166,166,482.12633979998645,,,,,,,,,,482.1126767999958,482.12633979998645,482.12633979998645,482.3095287999895,482.325462400011,484.11107260000426,None,1,,,,000013,001,2024-10-09_13h48.09.491,cpt_test,2024.2.2,60.192809600810406,2024-10-09 13h50.21.233488 -0600,
168,X,1,x,167,167,0,x,1,0.4988866999919992,0.24329700000816956,0,167,167,167,484.12421000000904,,,,,,,,,,484.11126949999016,484.12421000000904,484.12421000000904,484.30773520001094,484.324048999988,486.1092381000053,x,1,0.4988866999919992,0.24329700000816956,,000013,001,2024-10-09_13h48.09.491,cpt_test,2024.2.2,60.192809600810406,2024-10-09 13h50.21.233488 -0600,
169,A,0,None,168,168,0,None,1,,,0,168,168,168,486.12284600001294,,,,,,,,,,486.1094443000038,486.12284600001294,486.12284600001294,486.3060650000116,486.3233390999958,488.10764239999116,None,1,,,,000013,001,2024-10-09_13h48.09.491,cpt_test,2024.2.2,60.192809600810406,2024-10-09 13h50.21.233488 -0600,
170,X,1,x,169,169,0,x,1,0.6153693000087515,0.17369230001349933,0,169,169,169,488.1213074999978,,,,,,,,,,488.10781970000244,488.1213074999978,488.1213074999978,488.30453470000066,488.32073899998795,490.10650480000186,x,1,0.6153693000087515,0.17369230001349933,,000013,001,2024-10-09_13h48.09.491,cpt_test,2024.2.2,60.192809600810406,2024-10-09 13h50.21.233488 -0600,
171,L,0,None,170,170,0,None,1,,,0,170,170,170,490.11954389998573,,,,,,,,,,490.10673020000104,490.11954389998573,490.11954389998573,490.302620500006,490.31905079999706,492.1045407000056,None,1,,,,000013,001,2024-10-09_13h48.09.491,cpt_test,2024.2.2,60.192809600810406,2024-10-09 13h50.21.233488 -0600,
172,E,0,None,171,171,0,None,1,,,0,171,171,171,492.1179650000122,,,,,,,,,,492.10473819999606,492.1179650000122,492.1179650000122,492.301163199998,492.31748450000305,494.101977000013,None,1,,,,000013,001,2024-10-09_13h48.09.491,cpt_test,2024.2.2,60.192809600810406,2024-10-09 13h50.21.233488 -0600,
173,T,0,None,172,172,0,None,1,,,0,172,172,172,494.1160014999914,,,,,,,,,,494.1021270999918,494.1160014999914,494.1160014999914,494.3158017999958,494.3158017999958,496.1008412000083,None,1,,,,000013,001,2024-10-09_13h48.09.491,cpt_test,2024.2.2,60.192809600810406,2024-10-09 13h50.21.233488 -0600,
174,F,0,None,173,173,0,None,1,,,0,173,173,173,496.11460480000824,,,,,,,,,,496.10104159999173,496.11460480000824,496.11460480000824,496.3140863000008,496.3140863000008,498.11516049999045,None,1,,,,000013,001,2024-10-09_13h48.09.491,cpt_test,2024.2.2,60.192809600810406,2024-10-09 13h50.21.233488 -0600,
175,M,0,None,174,174,0,None,1,,,0,174,174,174,498.1297278999991,,,,,,,,,,498.11531319998903,498.1297278999991,498.1297278999991,498.3128919999872,498.3290946999914,500.11401260001,None,1,,,,000013,001,2024-10-09_13h48.09.491,cpt_test,2024.2.2,60.192809600810406,2024-10-09 13h50.21.233488 -0600,
176,Q,0,None,175,175,0,None,1,,,0,175,175,175,500.12815709999995,,,,,,,,,,500.1141867999977,500.12815709999995,500.12815709999995,500.3114198000112,500.327704299998,502.11254840000765,None,1,,,,000013,001,2024-10-09_13h48.09.491,cpt_test,2024.2.2,60.192809600810406,2024-10-09 13h50.21.233488 -0600,
177,M,0,None,176,176,0,None,1,,,0,176,176,176,502.1264772999857,,,,,,,,,,502.11272609999287,502.1264772999857,502.1264772999857,502.3095711999922,502.32577070000116,504.11031690001255,None,1,,,,000013,001,2024-10-09_13h48.09.491,cpt_test,2024.2.2,60.192809600810406,2024-10-09 13h50.21.233488 -0600,
178,X,1,x,177,177,0,x,1,0.6052452999865636,0.23265960000571795,0,177,177,177,504.12482389999786,,,,,,,,,,504.11046719999285,504.12482389999786,504.12482389999786,504.30789430000004,504.32406620000256,506.10974769998575,x,1,0.6052452999865636,0.23265960000571795,,000013,001,2024-10-09_13h48.09.491,cpt_test,2024.2.2,60.192809600810406,2024-10-09 13h50.21.233488 -0600,
179,V,0,None,178,178,0,None,1,,,0,178,178,178,506.12272519999533,,,,,,,,,,506.1099547999911,506.12272519999533,506.12272519999533,506.3063404999848,506.3226380000124,508.10713250000845,None,1,,,,000013,001,2024-10-09_13h48.09.491,cpt_test,2024.2.2,60.192809600810406,2024-10-09 13h50.21.233488 -0600,
180,M,0,None,179,179,0,None,1,,,0,179,179,179,508.1213560999895,,,,,,,,,,508.1072860000131,508.1213560999895,508.1213560999895,508.3045916999981,508.32110609998927,510.10579619999044,None,1,,,,000013,001,2024-10-09_13h48.09.491,cpt_test,2024.2.2,60.192809600810406,2024-10-09 13h50.21.233488 -0600,
181,P,0,None,180,180,0,None,1,,,0,180,180,180,510.11972129999776,,,,,,,,,,510.1059696000011,510.11972129999776,510.11972129999776,510.302767199988,510.31928319999133,512.104734099994,None,1,,,,000013,001,2024-10-09_13h48.09.491,cpt_test,2024.2.2,60.192809600810406,2024-10-09 13h50.21.233488 -0600,
182,K,0,None,181,181,0,None,1,,,0,181,181,181,512.1179153000121,,,,,,,,,,512.1049790999969,512.1179153000121,512.1179153000121,512.3014009000035,512.3176305000088,514.103188899986,None,1,,,,000013,001,2024-10-09_13h48.09.491,cpt_test,2024.2.2,60.192809600810406,2024-10-09 13h50.21.233488 -0600,
183,V,0,None,182,182,0,None,1,,,0,182,182,182,514.1164634999877,,,,,,,,,,514.1033951999852,514.1164634999877,514.1164634999877,514.2993686000118,514.3158942000009,516.1169131000061,None,1,,,516.1143589999992,000013,001,2024-10-09_13h48.09.491,cpt_test,2024.2.2,60.192809600810406,2024-10-09 13h50.21.233488 -0600,
184,G,0,None,183,183,0,None,1,,,0,183,183,183,516.1312021999911,,,,,,,,,,516.117056099989,516.1312021999911,516.1312021999911,516.3147509999981,516.3308394000051,518.1156404000067,None,1,,,,000013,001,2024-10-09_13h48.09.491,cpt_test,2024.2.2,60.192809600810406,2024-10-09 13h50.21.233488 -0600,
185,L,0,None,184,184,0,None,1,,,0,184,184,184,518.1296066000068,,,,,,,,,,518.1158149999974,518.1296066000068,518.1296066000068,518.3128625999962,518.3294441000035,520.1141945999989,None,1,,,,000013,001,2024-10-09_13h48.09.491,cpt_test,2024.2.2,60.192809600810406,2024-10-09 13h50.21.233488 -0600,
186,Q,0,None,185,185,0,None,1,,,0,185,185,185,520.1279980000108,,,,,,,,,,520.1143346999888,520.1279980000108,520.1279980000108,520.3114795000001,520.327558399993,522.1123301000043,None,1,,,,000013,001,2024-10-09_13h48.09.491,cpt_test,2024.2.2,60.192809600810406,2024-10-09 13h50.21.233488 -0600,
187,N,0,None,186,186,0,None,1,,,0,186,186,186,522.1266936000029,,,,,,,,,,522.1124876000104,522.1266936000029,522.1266936000029,522.3096005000116,522.3260494999995,524.1106653999886,None,1,,,,000013,001,2024-10-09_13h48.09.491,cpt_test,2024.2.2,60.192809600810406,2024-10-09 13h50.21.233488 -0600,
188,K,0,None,187,187,0,None,1,,,0,187,187,187,524.1248560000095,,,,,,,,,,524.1108238000015,524.1248560000095,524.1248560000095,524.3081116999965,524.3245154999895,526.1089080999955,None,1,,,,000013,001,2024-10-09_13h48.09.491,cpt_test,2024.2.2,60.192809600810406,2024-10-09 13h50.21.233488 -0600,
189,C,0,None,188,188,0,None,1,,,0,188,188,188,526.1233095999924,,,,,,,,,,526.1090722999943,526.1233095999924,526.1233095999924,526.3064736000088,526.3227991999884,528.1076158999931,None,1,,,,000013,001,2024-10-09_13h48.09.491,cpt_test,2024.2.2,60.192809600810406,2024-10-09 13h50.21.233488 -0600,
190,Z,0,None,189,189,0,None,1,,,0,189,189,189,528.1213777000085,,,,,,,,,,528.1077707000077,528.1213777000085,528.1213777000085,528.3046882000053,528.321274899994,530.1055163999845,None,1,,,,000013,001,2024-10-09_13h48.09.491,cpt_test,2024.2.2,60.192809600810406,2024-10-09 13h50.21.233488 -0600,
191,I,0,None,190,190,0,None,1,,,0,190,190,190,530.1195982999925,,,,,,,,,,530.1056600000011,530.1195982999925,530.1195982999925,530.3028370999964,530.319593799999,532.1048762999999,None,1,,,,000013,001,2024-10-09_13h48.09.491,cpt_test,2024.2.2,60.192809600810406,2024-10-09 13h50.21.233488 -0600,
192,J,0,None,191,191,0,None,1,,,0,191,191,191,532.118038399989,,,,,,,,,,532.1050383000111,532.118038399989,532.118038399989,532.3013072999893,532.3177219000063,534.1027088999981,None,1,,,,000013,001,2024-10-09_13h48.09.491,cpt_test,2024.2.2,60.192809600810406,2024-10-09 13h50.21.233488 -0600,
193,X,1,x,192,192,0,x,1,0.6611430000048131,0.17277209999156184,0,192,192,192,534.116469200002,,,,,,,,,,534.1028793999867,534.116469200002,534.116469200002,534.2995293999847,534.3160588000028,536.1009536999918,x,1,0.6611430000048131,0.17277209999156184,,000013,001,2024-10-09_13h48.09.491,cpt_test,2024.2.2,60.192809600810406,2024-10-09 13h50.21.233488 -0600,
194,E,0,None,193,193,0,None,1,,,0,193,193,193,536.1147858999902,,,,,,,,,,536.1011361999845,536.1147858999902,536.1147858999902,536.3144884000067,536.3144884000067,538.1157237000007,None,1,,,,000013,001,2024-10-09_13h48.09.491,cpt_test,2024.2.2,60.192809600810406,2024-10-09 13h50.21.233488 -0600,
195,X,1,x,194,194,0,x,1,0.5344203000131529,0.2034216999891214,0,194,194,194,538.1297381999902,,,,,,,,,,538.1158970000106,538.1297381999902,538.1297381999902,538.3132518999919,538.3295821000065,540.1142584999907,x,1,0.5344203000131529,0.2034216999891214,,000013,001,2024-10-09_13h48.09.491,cpt_test,2024.2.2,60.192809600810406,2024-10-09 13h50.21.233488 -0600,
196,X,1,x,195,195,0,None,0,,,0,195,195,195,540.1280698000046,,,,,,,,,,540.1144408000109,540.1280698000046,540.1280698000046,540.3113972999854,540.3277445999847,542.1125800999871,None,0,,,,000013,001,2024-10-09_13h48.09.491,cpt_test,2024.2.2,60.192809600810406,2024-10-09 13h50.21.233488 -0600,
197,O,0,None,196,196,0,None,1,,,0,196,196,196,542.1265000999847,,,,,,,,,,542.1127416999952,542.1265000999847,542.1265000999847,542.3098410000093,542.3262482999999,544.1113733999955,None,1,,,,000013,001,2024-10-09_13h48.09.491,cpt_test,2024.2.2,60.192809600810406,2024-10-09 13h50.21.233488 -0600,
198,X,1,x,197,197,0,x,1,0.5539124000060838,0.24370289998478256,0,197,197,197,544.1251387000084,,,,,,,,,,544.1115393000073,544.1251387000084,544.1251387000084,544.3082959000021,544.3246508000011,546.1090575999988,x,1,0.5539124000060838,0.24370289998478256,,000013,001,2024-10-09_13h48.09.491,cpt_test,2024.2.2,60.192809600810406,2024-10-09 13h50.21.233488 -0600,
199,T,0,None,198,198,0,None,1,,,0,198,198,198,546.1231682999933,,,,,,,,,,546.1092104999989,546.1231682999933,546.1231682999933,546.3064359000127,546.3229512000107,548.1074160999851,None,1,,,,000013,001,2024-10-09_13h48.09.491,cpt_test,2024.2.2,60.192809600810406,2024-10-09 13h50.21.233488 -0600,
200,X,1,x,199,199,0,x,1,0.5839521999878343,0.3129437000025064,0,199,199,199,548.1219399000111,,,,,,,,,,548.1075770999887,548.1219399000111,548.1219399000111,548.3048672000004,548.3213946000033,550.1054971000121,x,1,0.5839521999878343,0.3129437000025064,,000013,001,2024-10-09_13h48.09.491,cpt_test,2024.2.2,60.192809600810406,2024-10-09 13h50.21.233488 -0600,
201,L,0,None,200,200,0,None,1,,,0,200,200,200,550.1201010000077,,,,,,,,,,550.1056577000127,550.1201010000077,550.1201010000077,550.3030844999885,550.3193929000117,552.1042661000101,None,1,,,,000013,001,2024-10-09_13h48.09.491,cpt_test,2024.2.2,60.192809600810406,2024-10-09 13h50.21.233488 -0600,
