Number,letra,target,correctas,thisN,thisTrialN,thisRepN,respuesta.keys,respuesta.corr,respuesta.rt,respuesta.duration,trials.thisRepN,trials.thisTrialN,trials.thisN,trials.thisIndex,thisRow.t,notes,Ojos_abiertos.started,Abiertos.started,Ojos_abiertos.stopped,Ojos_cerrados.started,Cerrados.started,alert.started,Cerrados.stopped,alert.stopped,Ojos_cerrados.stopped,Test.started,prueba.started,respuesta.started,text.started,prueba.stopped,Test.stopped,trials.respuesta.keys,trials.respuesta.corr,trials.respuesta.rt,trials.respuesta.duration,text.stopped,participant,session,date,expName,psychopyVersion,frameRate,expStart,
,,,,,,,,,,,,,,,,,0.009616499999538064,0.017692499997792765,90.00699999998324,,,,,,,,,,,,,,,,,,000008,001,2024-10-09_12h17.30.296,cpt_test,2024.2.2,60.10576209262411,2024-10-09 12h20.30.718868 -0600,
,,,,,,,,,,,,,,,,,,,,90.0231885999965,90.03166839998448,150.00523956664645,150.03854599999613,150.3168880000012,150.10428229998797,,,,,,,,,,,,000008,001,2024-10-09_12h17.30.296,cpt_test,2024.2.2,60.10576209262411,2024-10-09 12h20.30.718868 -0600,
1,A,0,None,0,0,0,None,1,,,0,0,0,0,150.3168880000012,,,,,,,,,,,150.13642239998444,150.3168880000012,150.3168880000012,150.32859259998077,150.5213096999796,152.10581229999661,None,1,,,,000008,001,2024-10-09_12h17.30.296,cpt_test,2024.2.2,60.10576209262411,2024-10-09 12h20.30.718868 -0600,
2,R,0,None,1,1,0,None,1,,,0,1,1,1,152.12437839998165,,,,,,,,,,,152.10595810000086,152.12437839998165,152.12437839998165,152.3033014999819,152.3363860999816,154.1042508999817,None,1,,,,000008,001,2024-10-09_12h17.30.296,cpt_test,2024.2.2,60.10576209262411,2024-10-09 12h20.30.718868 -0600,
3,L,0,None,2,2,0,None,1,,,0,2,2,2,154.1226504999795,,,,,,,,,,,154.10441100000753,154.1226504999795,154.1226504999795,154.3019961999962,154.33470219999435,156.10270419999142,None,1,,,,000008,001,2024-10-09_12h17.30.296,cpt_test,2024.2.2,60.10576209262411,2024-10-09 12h20.30.718868 -0600,
4,X,1,x,3,3,0,x,1,0.5552755999960937,0.16304799998761155,0,3,3,3,156.11961369999335,,,,,,,,,,,156.10290179998265,156.11961369999335,156.11961369999335,156.3002409999899,156.33321640000213,158.1011787999887,x,1,0.5552755999960937,0.16304799998761155,,000008,001,2024-10-09_12h17.30.296,cpt_test,2024.2.2,60.10576209262411,2024-10-09 12h20.30.718868 -0600,
5,O,0,None,4,4,0,None,1,,,0,4,4,4,158.11724269998376,,,,,,,,,,,158.101345699979,158.11724269998376,158.11724269998376,158.31505579999066,158.33135540000512,160.1159326999914,None,1,,,,000008,001,2024-10-09_12h17.30.296,cpt_test,2024.2.2,60.10576209262411,2024-10-09 12h20.30.718868 -0600,
6,G,0,None,5,5,0,None,1,,,0,5,5,5,160.13153270000475,,,,,,,,,,,160.11608159999014,160.13153270000475,160.13153270000475,160.31359229999362,160.34650200000033,162.11520479997853,None,1,,,,000008,001,2024-10-09_12h17.30.296,cpt_test,2024.2.2,60.10576209262411,2024-10-09 12h20.30.718868 -0600,
7,P,0,None,6,6,0,None,1,,,0,6,6,6,162.13246609998168,,,,,,,,,,,162.11538350000046,162.13246609998168,162.13246609998168,162.31193039999926,162.34469529998023,164.1133850000042,None,1,,,,000008,001,2024-10-09_12h17.30.296,cpt_test,2024.2.2,60.10576209262411,2024-10-09 12h20.30.718868 -0600,
8,X,1,x,7,7,0,x,1,0.4316885999869555,0.18056560002150945,0,7,7,7,164.12710199999856,,,,,,,,,,,164.11357960000169,164.12710199999856,164.12710199999856,164.31002750000334,164.3266173999873,166.11158369999612,x,1,0.4316885999869555,0.18056560002150945,,000008,001,2024-10-09_12h17.30.296,cpt_test,2024.2.2,60.10576209262411,2024-10-09 12h20.30.718868 -0600,
9,X,1,x,8,8,0,x,1,0.3748511000012513,0.1810954000102356,0,8,8,8,166.12523579999106,,,,,,,,,,,166.11177819999284,166.12523579999106,166.12523579999106,166.30818940000609,166.32517699999153,168.1101275999972,x,1,0.3748511000012513,0.1810954000102356,,000008,001,2024-10-09_12h17.30.296,cpt_test,2024.2.2,60.10576209262411,2024-10-09 12h20.30.718868 -0600,
10,Z,0,None,9,9,0,None,1,,,0,9,9,9,168.12993920000736,,,,,,,,,,,168.11036379999132,168.12993920000736,168.12993920000736,168.30695329999435,168.33997919998365,170.10762669998803,None,1,,,,000008,001,2024-10-09_12h17.30.296,cpt_test,2024.2.2,60.10576209262411,2024-10-09 12h20.30.718868 -0600,
11,I,0,None,10,10,0,None,1,,,0,10,10,10,170.12283710000338,,,,,,,,,,,170.10777099998086,170.12283710000338,170.12283710000338,170.30498230000376,170.33829739998328,172.10685310000554,None,1,,,,000008,001,2024-10-09_12h17.30.296,cpt_test,2024.2.2,60.10576209262411,2024-10-09 12h20.30.718868 -0600,
12,D,0,None,11,11,0,None,1,,,0,11,11,11,172.12680569998338,,,,,,,,,,,172.1070544999966,172.12680569998338,172.12680569998338,172.30370469999616,172.33634149999125,174.10420750000048,None,1,,,,000008,001,2024-10-09_12h17.30.296,cpt_test,2024.2.2,60.10576209262411,2024-10-09 12h20.30.718868 -0600,
13,X,1,x,12,12,0,x,1,0.3816674999834504,0.16843300001346506,0,12,12,12,174.1187121999974,,,,,,,,,,,174.10435949999373,174.1187121999974,174.1187121999974,174.30198349998682,174.3182009999873,176.10347229999024,x,1,0.3816674999834504,0.16843300001346506,,000008,001,2024-10-09_12h17.30.296,cpt_test,2024.2.2,60.10576209262411,2024-10-09 12h20.30.718868 -0600,
14,Y,0,None,13,13,0,None,1,,,0,13,13,13,176.12336399999913,,,,,,,,,,,176.10368619998917,176.12336399999913,176.12336399999913,176.30052210000576,176.33334939999622,178.1021774999972,None,1,,,,000008,001,2024-10-09_12h17.30.296,cpt_test,2024.2.2,60.10576209262411,2024-10-09 12h20.30.718868 -0600,
15,X,1,x,14,14,0,x,1,0.4071213999995962,0.1622239999996964,0,14,14,14,178.11552429999574,,,,,,,,,,,178.1024025999941,178.11552429999574,178.11552429999574,178.31537409999873,178.31537409999873,180.116094099998,x,1,0.4071213999995962,0.1622239999996964,,000008,001,2024-10-09_12h17.30.296,cpt_test,2024.2.2,60.10576209262411,2024-10-09 12h20.30.718868 -0600,
16,X,1,x,15,15,0,x,1,0.36543959999107756,0.16862640000181273,0,15,15,15,180.1303884999943,,,,,,,,,,,180.11625769999227,180.1303884999943,180.1303884999943,180.31354199998896,180.33022420000634,182.11448669998208,x,1,0.36543959999107756,0.16862640000181273,,000008,001,2024-10-09_12h17.30.296,cpt_test,2024.2.2,60.10576209262411,2024-10-09 12h20.30.718868 -0600,
17,A,0,None,16,16,0,None,1,,,0,16,16,16,182.1286989999935,,,,,,,,,,,182.114640099986,182.1286989999935,182.1286989999935,182.31211519998033,182.32837539998582,184.11280939998687,None,1,,,,000008,001,2024-10-09_12h17.30.296,cpt_test,2024.2.2,60.10576209262411,2024-10-09 12h20.30.718868 -0600,
18,J,0,None,17,17,0,None,1,,,0,17,17,17,184.13128709999728,,,,,,,,,,,184.11298689999967,184.13128709999728,184.13128709999728,184.31035869999323,184.3434803999844,186.11141320000752,None,1,,,,000008,001,2024-10-09_12h17.30.296,cpt_test,2024.2.2,60.10576209262411,2024-10-09 12h20.30.718868 -0600,
19,G,0,None,18,18,0,None,1,,,0,18,18,18,186.1257259999984,,,,,,,,,,,186.11157579999417,186.1257259999984,186.1257259999984,186.30891729998984,186.325018500007,188.11011670000153,None,1,,,,000008,001,2024-10-09_12h17.30.296,cpt_test,2024.2.2,60.10576209262411,2024-10-09 12h20.30.718868 -0600,
20,X,1,x,19,19,0,x,1,0.35203060001367703,0.17613489998620935,0,19,19,19,188.1237156999996,,,,,,,,,,,188.11030519998167,188.1237156999996,188.1237156999996,188.30713780000224,188.3234914999921,190.1077325999795,x,1,0.35203060001367703,0.17613489998620935,,000008,001,2024-10-09_12h17.30.296,cpt_test,2024.2.2,60.10576209262411,2024-10-09 12h20.30.718868 -0600,
21,T,0,None,20,20,0,None,1,,,0,20,20,20,190.1251818999881,,,,,,,,,,,190.10788900000625,190.1251818999881,190.1251818999881,190.30524049999076,190.33855869999388,192.1065052000049,None,1,,,,000008,001,2024-10-09_12h17.30.296,cpt_test,2024.2.2,60.10576209262411,2024-10-09 12h20.30.718868 -0600,
22,S,0,None,21,21,0,None,1,,,0,21,21,21,192.12503589998232,,,,,,,,,,,192.10665929998504,192.12503589998232,192.12503589998232,192.30396239997935,192.33693379999022,194.10459249999258,None,1,,,,000008,001,2024-10-09_12h17.30.296,cpt_test,2024.2.2,60.10576209262411,2024-10-09 12h20.30.718868 -0600,
23,X,1,x,22,22,0,x,1,0.4376461000065319,0.18969969998579472,0,22,22,22,194.11909259998356,,,,,,,,,,,194.1047624000057,194.11909259998356,194.11909259998356,194.30231719999574,194.3185771999997,196.10330909999902,x,1,0.4376461000065319,0.18969969998579472,,000008,001,2024-10-09_12h17.30.296,cpt_test,2024.2.2,60.10576209262411,2024-10-09 12h20.30.718868 -0600,
24,S,0,None,23,23,0,None,1,,,0,23,23,23,196.11755890000495,,,,,,,,,,,196.1035026999889,196.11755890000495,196.11755890000495,196.30046979998588,196.31707960000494,198.10150239997893,None,1,,,,000008,001,2024-10-09_12h17.30.296,cpt_test,2024.2.2,60.10576209262411,2024-10-09 12h20.30.718868 -0600,
25,G,0,None,24,24,0,None,1,,,0,24,24,24,198.11568590000388,,,,,,,,,,,198.10166839999147,198.11568590000388,198.11568590000388,198.3152623999922,198.3152623999922,200.11615610000445,None,1,,,,000008,001,2024-10-09_12h17.30.296,cpt_test,2024.2.2,60.10576209262411,2024-10-09 12h20.30.718868 -0600,
26,O,0,None,25,25,0,None,1,,,0,25,25,25,200.13079549997929,,,,,,,,,,,200.11631539999507,200.13079549997929,200.13079549997929,200.31403429998318,200.33041819999926,202.1149603999802,None,1,,,,000008,001,2024-10-09_12h17.30.296,cpt_test,2024.2.2,60.10576209262411,2024-10-09 12h20.30.718868 -0600,
27,P,0,None,26,26,0,None,1,,,0,26,26,26,202.1288596999948,,,,,,,,,,,202.11513879999984,202.1288596999948,202.1288596999948,202.31231489998754,202.32868959999178,204.11287509999238,None,1,,,,000008,001,2024-10-09_12h17.30.296,cpt_test,2024.2.2,60.10576209262411,2024-10-09 12h20.30.718868 -0600,
28,Z,0,None,27,27,0,None,1,,,0,27,27,27,204.12720029999036,,,,,,,,,,,204.1130338999792,204.12720029999036,204.12720029999036,204.310728499986,204.3269353999931,206.11149079998722,None,1,,,,000008,001,2024-10-09_12h17.30.296,cpt_test,2024.2.2,60.10576209262411,2024-10-09 12h20.30.718868 -0600,
29,X,1,x,28,28,0,x,1,0.4078332000062801,0.1633289000019431,0,28,28,28,206.12563160000718,,,,,,,,,,,206.11164980000467,206.12563160000718,206.12563160000718,206.3087438000075,206.32518829999026,208.1098825999943,x,1,0.4078332000062801,0.1633289000019431,,000008,001,2024-10-09_12h17.30.296,cpt_test,2024.2.2,60.10576209262411,2024-10-09 12h20.30.718868 -0600,
30,I,0,None,29,29,0,None,1,,,0,29,29,29,208.1240220000036,,,,,,,,,,,208.11006079998333,208.1240220000036,208.1240220000036,208.30711749999318,208.323754299985,210.10838739998871,None,1,,,,000008,001,2024-10-09_12h17.30.296,cpt_test,2024.2.2,60.10576209262411,2024-10-09 12h20.30.718868 -0600,
31,F,0,None,30,30,0,None,1,,,0,30,30,30,210.12779100000625,,,,,,,,,,,210.10856419999618,210.12779100000625,210.12779100000625,210.30574189999606,210.33874680000008,212.1072588999814,None,1,,,,000008,001,2024-10-09_12h17.30.296,cpt_test,2024.2.2,60.10576209262411,2024-10-09 12h20.30.718868 -0600,
32,M,0,None,31,31,0,None,1,,,0,31,31,31,212.12820079998346,,,,,,,,,,,212.10745929999393,212.12820079998346,212.12820079998346,212.3042719999794,212.3370168999827,214.10482639999827,None,1,,,,000008,001,2024-10-09_12h17.30.296,cpt_test,2024.2.2,60.10576209262411,2024-10-09 12h20.30.718868 -0600,
33,T,0,None,32,32,0,None,1,,,0,32,32,32,214.11942360000103,,,,,,,,,,,214.10498760000337,214.11942360000103,214.11942360000103,214.30236840000725,214.31896679999772,216.10312220000196,None,1,,,,000008,001,2024-10-09_12h17.30.296,cpt_test,2024.2.2,60.10576209262411,2024-10-09 12h20.30.718868 -0600,
34,A,0,None,33,33,0,None,1,,,0,33,33,33,216.11738549999427,,,,,,,,,,,216.1032741999952,216.11738549999427,216.11738549999427,216.30084119999083,216.3171669000003,218.10180859998218,None,1,,,,000008,001,2024-10-09_12h17.30.296,cpt_test,2024.2.2,60.10576209262411,2024-10-09 12h20.30.718868 -0600,
35,E,0,None,34,34,0,None,1,,,0,34,34,34,218.1176244999806,,,,,,,,,,,218.1019699999888,218.1176244999806,218.1176244999806,218.31578469998203,218.33204409998143,220.1165018999891,None,1,,,,000008,001,2024-10-09_12h17.30.296,cpt_test,2024.2.2,60.10576209262411,2024-10-09 12h20.30.718868 -0600,
36,X,1,x,35,35,0,x,1,0.3864058000035584,0.17832380000618286,0,35,35,35,220.13078700000187,,,,,,,,,,,220.11666189998505,220.13078700000187,220.13078700000187,220.31388349999906,220.3303445999918,222.1145925000019,x,1,0.3864058000035584,0.17832380000618286,,000008,001,2024-10-09_12h17.30.296,cpt_test,2024.2.2,60.10576209262411,2024-10-09 12h20.30.718868 -0600,
37,A,0,None,36,36,0,None,1,,,0,36,36,36,222.13212179997936,,,,,,,,,,,222.11475149999023,222.13212179997936,222.13212179997936,222.31223239999963,222.34536559999106,224.1140203999821,None,1,,,,000008,001,2024-10-09_12h17.30.296,cpt_test,2024.2.2,60.10576209262411,2024-10-09 12h20.30.718868 -0600,
38,S,0,None,37,37,0,None,1,,,0,37,37,37,224.1274218999897,,,,,,,,,,,224.11422220000532,224.1274218999897,224.1274218999897,224.3106179999886,224.32721459999448,226.11313519999385,None,1,,,,000008,001,2024-10-09_12h17.30.296,cpt_test,2024.2.2,60.10576209262411,2024-10-09 12h20.30.718868 -0600,
39,U,0,None,38,38,0,None,1,,,0,38,38,38,226.1347019999812,,,,,,,,,,,226.11337869998533,226.1347019999812,226.1347019999812,226.30924179998692,226.3421440999955,228.11089250000077,None,1,,,,000008,001,2024-10-09_12h17.30.296,cpt_test,2024.2.2,60.10576209262411,2024-10-09 12h20.30.718868 -0600,
40,U,0,None,39,39,0,None,1,,,0,39,39,39,228.1244012999814,,,,,,,,,,,228.11110009998083,228.1244012999814,228.1244012999814,228.30728909999016,228.32399760000408,230.1088630000013,None,1,,,,000008,001,2024-10-09_12h17.30.296,cpt_test,2024.2.2,60.10576209262411,2024-10-09 12h20.30.718868 -0600,
41,Q,0,None,40,40,0,None,1,,,0,40,40,40,230.12890199999674,,,,,,,,,,,230.1090497999976,230.12890199999674,230.12890199999674,230.30590680000023,230.3389152000018,232.107365200005,None,1,,,,000008,001,2024-10-09_12h17.30.296,cpt_test,2024.2.2,60.10576209262411,2024-10-09 12h20.30.718868 -0600,
42,E,0,None,41,41,0,None,1,,,0,41,41,41,232.1210851999931,,,,,,,,,,,232.10755799998879,232.1210851999931,232.1210851999931,232.303917799989,232.32059570000274,234.1055747999926,None,1,,,,000008,001,2024-10-09_12h17.30.296,cpt_test,2024.2.2,60.10576209262411,2024-10-09 12h20.30.718868 -0600,
43,B,0,None,42,42,0,None,1,,,0,42,42,42,234.1248285000038,,,,,,,,,,,234.10575019998942,234.1248285000038,234.1248285000038,234.30258079999476,234.33561249999912,236.10387329998775,None,1,,,,000008,001,2024-10-09_12h17.30.296,cpt_test,2024.2.2,60.10576209262411,2024-10-09 12h20.30.718868 -0600,
44,O,0,None,43,43,0,None,1,,,0,43,43,43,236.1178871000011,,,,,,,,,,,236.10405860000174,236.1178871000011,236.1178871000011,236.30083180000656,236.3173311999999,238.10290019999957,None,1,,,,000008,001,2024-10-09_12h17.30.296,cpt_test,2024.2.2,60.10576209262411,2024-10-09 12h20.30.718868 -0600,
45,E,0,None,44,44,0,None,1,,,0,44,44,44,238.11596619998454,,,,,,,,,,,238.10312709998107,238.11596619998454,238.11596619998454,238.31559969999944,238.31559969999944,240.1018892999855,None,1,,,,000008,001,2024-10-09_12h17.30.296,cpt_test,2024.2.2,60.10576209262411,2024-10-09 12h20.30.718868 -0600,
46,F,0,None,45,45,0,None,1,,,0,45,45,45,240.11447430000408,,,,,,,,,,,240.1021368999791,240.11447430000408,240.11447430000408,240.31415729998844,240.31415729998844,242.11543790000724,None,1,,,,000008,001,2024-10-09_12h17.30.296,cpt_test,2024.2.2,60.10576209262411,2024-10-09 12h20.30.718868 -0600,
47,V,0,None,46,46,0,None,1,,,0,46,46,46,242.13283779998892,,,,,,,,,,,242.11560449999524,242.13283779998892,242.13283779998892,242.3127387999848,242.3455236000009,244.11434289999306,None,1,,,,000008,001,2024-10-09_12h17.30.296,cpt_test,2024.2.2,60.10576209262411,2024-10-09 12h20.30.718868 -0600,
48,X,1,x,47,47,0,x,1,0.40768750000279397,0.17634589999215677,0,47,47,47,244.12761249998584,,,,,,,,,,,244.11455179998302,244.12761249998584,244.12761249998584,244.31080529998871,244.32724099999177,246.1121790999896,x,1,0.40768750000279397,0.17634589999215677,,000008,001,2024-10-09_12h17.30.296,cpt_test,2024.2.2,60.10576209262411,2024-10-09 12h20.30.718868 -0600,
49,X,1,x,48,48,0,x,1,0.4633010999823455,0.17690330001641996,0,48,48,48,246.12618619998102,,,,,,,,,,,246.11237809999147,246.12618619998102,246.12618619998102,246.30938200000674,246.3258244000026,248.11113519998617,x,1,0.4633010999823455,0.17690330001641996,,000008,001,2024-10-09_12h17.30.296,cpt_test,2024.2.2,60.10576209262411,2024-10-09 12h20.30.718868 -0600,
50,C,0,None,49,49,0,None,1,,,0,49,49,49,248.13151209999342,,,,,,,,,,,248.11134800000582,248.13151209999342,248.13151209999342,248.30783959999098,248.34052090000478,250.11022589998902,None,1,,,,000008,001,2024-10-09_12h17.30.296,cpt_test,2024.2.2,60.10576209262411,2024-10-09 12h20.30.718868 -0600,
51,M,0,None,50,50,0,None,1,,,0,50,50,50,250.12292480000178,,,,,,,,,,,250.11047179999878,250.12292480000178,250.12292480000178,250.30622369999764,250.3223325999861,252.10723989998223,None,1,,,,000008,001,2024-10-09_12h17.30.296,cpt_test,2024.2.2,60.10576209262411,2024-10-09 12h20.30.718868 -0600,
52,D,0,None,51,51,0,None,1,,,0,51,51,51,252.12288369997987,,,,,,,,,,,252.1074088999885,252.12288369997987,252.12288369997987,252.30436969999573,252.33751660000416,254.1058364000055,None,1,,,,000008,001,2024-10-09_12h17.30.296,cpt_test,2024.2.2,60.10576209262411,2024-10-09 12h20.30.718868 -0600,
53,X,1,x,52,52,0,x,1,0.44977389997802675,0.16713850002270192,0,52,52,52,254.1197061999992,,,,,,,,,,,254.1060239999788,254.1197061999992,254.1197061999992,254.30254429997876,254.31910299998708,256.1046686999907,x,1,0.44977389997802675,0.16713850002270192,,000008,001,2024-10-09_12h17.30.296,cpt_test,2024.2.2,60.10576209262411,2024-10-09 12h20.30.718868 -0600,
54,K,0,None,53,53,0,None,1,,,0,53,53,53,256.1248693999951,,,,,,,,,,,256.10489399998914,256.1248693999951,256.1248693999951,256.3009951999993,256.33438270000624,258.10269269999117,None,1,,,,000008,001,2024-10-09_12h17.30.296,cpt_test,2024.2.2,60.10576209262411,2024-10-09 12h20.30.718868 -0600,
55,X,1,x,54,54,0,x,1,0.4244252000062261,0.1584015999978874,0,54,54,54,258.11613359997864,,,,,,,,,,,258.1028948999883,258.11613359997864,258.11613359997864,258.3156331999926,258.3156331999926,260.101734099997,x,1,0.4244252000062261,0.1584015999978874,,000008,001,2024-10-09_12h17.30.296,cpt_test,2024.2.2,60.10576209262411,2024-10-09 12h20.30.718868 -0600,
56,N,0,None,55,55,0,None,1,,,0,55,55,55,260.1217207000009,,,,,,,,,,,260.10197039999184,260.1217207000009,260.1217207000009,260.3144054999866,260.33099600000423,262.1153303000028,None,1,,,,000008,001,2024-10-09_12h17.30.296,cpt_test,2024.2.2,60.10576209262411,2024-10-09 12h20.30.718868 -0600,
57,M,0,None,56,56,0,None,1,,,0,56,56,56,262.1297978000075,,,,,,,,,,,262.1154976999969,262.1297978000075,262.1297978000075,262.3127933999931,262.3292615999817,264.113833099982,None,1,,,,000008,001,2024-10-09_12h17.30.296,cpt_test,2024.2.2,60.10576209262411,2024-10-09 12h20.30.718868 -0600,
58,X,1,x,57,57,0,x,1,0.43372030000318773,0.17687539997859858,0,57,57,57,264.1277036999818,,,,,,,,,,,264.1139857999806,264.1277036999818,264.1277036999818,264.31135839998024,264.3276768999931,266.1131642999826,x,1,0.43372030000318773,0.17687539997859858,,000008,001,2024-10-09_12h17.30.296,cpt_test,2024.2.2,60.10576209262411,2024-10-09 12h20.30.718868 -0600,
59,F,0,None,58,58,0,None,1,,,0,58,58,58,266.1264183000021,,,,,,,,,,,266.1133904999879,266.1264183000021,266.1264183000021,266.30964849999873,266.32582319999347,268.1104444999946,None,1,,,,000008,001,2024-10-09_12h17.30.296,cpt_test,2024.2.2,60.10576209262411,2024-10-09 12h20.30.718868 -0600,
60,A,0,None,59,59,0,None,1,,,0,59,59,59,268.1248465999961,,,,,,,,,,,268.11059840000235,268.1248465999961,268.1248465999961,268.3075960999995,268.3241682999942,270.1097565999953,None,1,,,,000008,001,2024-10-09_12h17.30.296,cpt_test,2024.2.2,60.10576209262411,2024-10-09 12h20.30.718868 -0600,
61,X,1,x,60,60,0,x,1,0.4101590999925975,0.1632310000131838,0,60,60,60,270.12295049999375,,,,,,,,,,,270.1099620999885,270.12295049999375,270.12295049999375,270.3060874999792,270.3226544999925,272.1070428999956,x,1,0.4101590999925975,0.1632310000131838,,000008,001,2024-10-09_12h17.30.296,cpt_test,2024.2.2,60.10576209262411,2024-10-09 12h20.30.718868 -0600,
62,V,0,None,61,61,0,None,1,,,0,61,61,61,272.12152879999485,,,,,,,,,,,272.1072118000011,272.12152879999485,272.12152879999485,272.3046745999891,272.3210154999979,274.1055611000047,None,1,,,,000008,001,2024-10-09_12h17.30.296,cpt_test,2024.2.2,60.10576209262411,2024-10-09 12h20.30.718868 -0600,
63,U,0,None,62,62,0,None,1,,,0,62,62,62,274.11991199999466,,,,,,,,,,,274.1057186999824,274.11991199999466,274.11991199999466,274.3026911999914,274.31931629998144,276.1042330999917,None,1,,,,000008,001,2024-10-09_12h17.30.296,cpt_test,2024.2.2,60.10576209262411,2024-10-09 12h20.30.718868 -0600,
64,M,0,None,63,63,0,None,1,,,0,63,63,63,276.11811619999935,,,,,,,,,,,276.10439649998443,276.11811619999935,276.11811619999935,276.3014939999848,276.3177751000039,278.1019016999926,None,1,,,,000008,001,2024-10-09_12h17.30.296,cpt_test,2024.2.2,60.10576209262411,2024-10-09 12h20.30.718868 -0600,
65,X,1,x,64,64,0,x,1,0.3991768999840133,0.17077480000443757,0,64,64,64,278.11636260000523,,,,,,,,,,,278.10204659999,278.11636260000523,278.11636260000523,278.3000873999845,278.3163471999869,280.11715760000516,x,1,0.3991768999840133,0.17077480000443757,280.11447440000484,000008,001,2024-10-09_12h17.30.296,cpt_test,2024.2.2,60.10576209262411,2024-10-09 12h20.30.718868 -0600,
66,A,0,None,65,65,0,None,1,,,0,65,65,65,280.13164089998463,,,,,,,,,,,280.1173432999931,280.13164089998463,280.13164089998463,280.31451279998873,280.3310829999973,282.1150262999872,None,1,,,,000008,001,2024-10-09_12h17.30.296,cpt_test,2024.2.2,60.10576209262411,2024-10-09 12h20.30.718868 -0600,
67,N,0,None,66,66,0,None,1,,,0,66,66,66,282.12994049998815,,,,,,,,,,,282.11516779998783,282.12994049998815,282.12994049998815,282.3128947999794,282.3293399999966,284.1139261999924,None,1,,,,000008,001,2024-10-09_12h17.30.296,cpt_test,2024.2.2,60.10576209262411,2024-10-09 12h20.30.718868 -0600,
68,H,0,None,67,67,0,None,1,,,0,67,67,67,284.1328094000055,,,,,,,,,,,284.1140723999997,284.1328094000055,284.1328094000055,284.3112948999915,284.34548819999327,286.1124742999964,None,1,,,,000008,001,2024-10-09_12h17.30.296,cpt_test,2024.2.2,60.10576209262411,2024-10-09 12h20.30.718868 -0600,
69,A,0,None,68,68,0,None,1,,,0,68,68,68,286.1262696000049,,,,,,,,,,,286.1126325999794,286.1262696000049,286.1262696000049,286.3095592999889,286.326207599981,288.11105969999335,None,1,,,,000008,001,2024-10-09_12h17.30.296,cpt_test,2024.2.2,60.10576209262411,2024-10-09 12h20.30.718868 -0600,
70,X,1,x,69,69,0,x,1,0.41669099999126047,0.17081570002483204,0,69,69,69,288.12496309998096,,,,,,,,,,,288.11125190000166,288.12496309998096,288.12496309998096,288.3078298000037,288.32431309999083,290.1088621999952,x,1,0.41669099999126047,0.17081570002483204,,000008,001,2024-10-09_12h17.30.296,cpt_test,2024.2.2,60.10576209262411,2024-10-09 12h20.30.718868 -0600,
71,F,0,None,70,70,0,None,1,,,0,70,70,70,290.12306300000637,,,,,,,,,,,290.1090592999826,290.12306300000637,290.12306300000637,290.30625339999096,290.3229053999821,292.10674519999884,None,1,,,,000008,001,2024-10-09_12h17.30.296,cpt_test,2024.2.2,60.10576209262411,2024-10-09 12h20.30.718868 -0600,
72,N,0,None,71,71,0,None,1,,,0,71,71,71,292.1218290999823,,,,,,,,,,,292.10689679998904,292.1218290999823,292.1218290999823,292.3048149999813,292.3211269000021,294.10540189998574,None,1,,,,000008,001,2024-10-09_12h17.30.296,cpt_test,2024.2.2,60.10576209262411,2024-10-09 12h20.30.718868 -0600,
73,K,0,None,72,72,0,None,1,,,0,72,72,72,294.11968869998236,,,,,,,,,,,294.1055497000052,294.11968869998236,294.11968869998236,294.30308379998314,294.31963270000415,296.104113999987,None,1,,,,000008,001,2024-10-09_12h17.30.296,cpt_test,2024.2.2,60.10576209262411,2024-10-09 12h20.30.718868 -0600,
74,Y,0,None,73,73,0,None,1,,,0,73,73,73,296.1182591999823,,,,,,,,,,,296.1042661999818,296.1182591999823,296.1182591999823,296.3014949999924,296.3183401999995,298.10321929998463,None,1,,,,000008,001,2024-10-09_12h17.30.296,cpt_test,2024.2.2,60.10576209262411,2024-10-09 12h20.30.718868 -0600,
75,Y,0,None,74,74,0,None,1,,,0,74,74,74,298.1165267000033,,,,,,,,,,,298.1034185999888,298.1165267000033,298.1165267000033,298.30006829998456,298.31603659997927,300.1016633999825,None,1,,,,000008,001,2024-10-09_12h17.30.296,cpt_test,2024.2.2,60.10576209262411,2024-10-09 12h20.30.718868 -0600,
76,R,0,None,75,75,0,None,1,,,0,75,75,75,300.1148482999997,,,,,,,,,,,300.10187210000004,300.1148482999997,300.1148482999997,300.31460769998375,300.31460769998375,302.11548179999227,None,1,,,,000008,001,2024-10-09_12h17.30.296,cpt_test,2024.2.2,60.10576209262411,2024-10-09 12h20.30.718868 -0600,
77,X,1,x,76,76,0,x,1,0.3896253999846522,0.20823010001913644,0,76,76,76,302.12968069998897,,,,,,,,,,,302.1156387999945,302.12968069998897,302.12968069998897,302.3132143999974,302.3295746999793,304.11387649999233,x,1,0.3896253999846522,0.20823010001913644,,000008,001,2024-10-09_12h17.30.296,cpt_test,2024.2.2,60.10576209262411,2024-10-09 12h20.30.718868 -0600,
78,R,0,None,77,77,0,None,1,,,0,77,77,77,304.12857499998063,,,,,,,,,,,304.1140385000035,304.12857499998063,304.12857499998063,304.3113018999866,304.327864699997,306.1122372999962,None,1,,,,000008,001,2024-10-09_12h17.30.296,cpt_test,2024.2.2,60.10576209262411,2024-10-09 12h20.30.718868 -0600,
79,F,0,None,78,78,0,None,1,,,0,78,78,78,306.1268831999914,,,,,,,,,,,306.1123828999989,306.1268831999914,306.1268831999914,306.30998200000613,306.3261712999956,308.1111775999889,None,1,,,,000008,001,2024-10-09_12h17.30.296,cpt_test,2024.2.2,60.10576209262411,2024-10-09 12h20.30.718868 -0600,
80,K,0,None,79,79,0,None,1,,,0,79,79,79,308.1254120999947,,,,,,,,,,,308.1113215999794,308.1254120999947,308.1254120999947,308.30867589998525,308.3247007000027,310.10903930000495,None,1,,,,000008,001,2024-10-09_12h17.30.296,cpt_test,2024.2.2,60.10576209262411,2024-10-09 12h20.30.718868 -0600,
81,O,0,None,80,80,0,None,1,,,0,80,80,80,310.123589099996,,,,,,,,,,,310.1092049999861,310.123589099996,310.123589099996,310.3067363000009,310.32277229998726,312.10762219998287,None,1,,,,000008,001,2024-10-09_12h17.30.296,cpt_test,2024.2.2,60.10576209262411,2024-10-09 12h20.30.718868 -0600,
82,F,0,None,81,81,0,None,1,,,0,81,81,81,312.1217312999943,,,,,,,,,,,312.10780030000024,312.1217312999943,312.1217312999943,312.3047161999857,312.32137629998033,314.1058881999925,None,1,,,,000008,001,2024-10-09_12h17.30.296,cpt_test,2024.2.2,60.10576209262411,2024-10-09 12h20.30.718868 -0600,
83,F,0,None,82,82,0,None,1,,,0,82,82,82,314.12029550000443,,,,,,,,,,,314.10604119999334,314.12029550000443,314.12029550000443,314.30318049999187,314.3197248999786,316.1050171999959,None,1,,,,000008,001,2024-10-09_12h17.30.296,cpt_test,2024.2.2,60.10576209262411,2024-10-09 12h20.30.718868 -0600,
84,W,0,None,83,83,0,None,1,,,0,83,83,83,316.1265121999895,,,,,,,,,,,316.10520629998064,316.1265121999895,316.1265121999895,316.30168049997883,316.33475989999715,318.1023975999851,None,1,,,,000008,001,2024-10-09_12h17.30.296,cpt_test,2024.2.2,60.10576209262411,2024-10-09 12h20.30.718868 -0600,
85,X,1,x,84,84,0,x,1,0.40999399998690933,0.16720769999665208,0,84,84,84,318.11688519999734,,,,,,,,,,,318.102558899991,318.11688519999734,318.11688519999734,318.3000714999798,318.31649050000124,320.10060410000733,x,1,0.40999399998690933,0.16720769999665208,,000008,001,2024-10-09_12h17.30.296,cpt_test,2024.2.2,60.10576209262411,2024-10-09 12h20.30.718868 -0600,
86,J,0,None,85,85,0,None,1,,,0,85,85,85,320.11499589998857,,,,,,,,,,,320.10076959998696,320.11499589998857,320.11499589998857,320.3148494999914,320.3148494999914,322.1158371999918,None,1,,,,000008,001,2024-10-09_12h17.30.296,cpt_test,2024.2.2,60.10576209262411,2024-10-09 12h20.30.718868 -0600,
87,N,0,None,86,86,0,None,1,,,0,86,86,86,322.1304494999931,,,,,,,,,,,322.115990899998,322.1304494999931,322.1304494999931,322.3131563999923,322.33047439999063,324.1151230999967,None,1,,,,000008,001,2024-10-09_12h17.30.296,cpt_test,2024.2.2,60.10576209262411,2024-10-09 12h20.30.718868 -0600,
88,X,1,x,87,87,0,x,1,0.4864106999884825,0.17041320001590066,0,87,87,87,324.1285678999848,,,,,,,,,,,324.11532710000756,324.1285678999848,324.1285678999848,324.3117297999852,324.3283009000006,326.1125319999992,x,1,0.4864106999884825,0.17041320001590066,,000008,001,2024-10-09_12h17.30.296,cpt_test,2024.2.2,60.10576209262411,2024-10-09 12h20.30.718868 -0600,
89,T,0,None,88,88,0,None,1,,,0,88,88,88,326.1268848000036,,,,,,,,,,,326.1126941999828,326.1268848000036,326.1268848000036,326.3100001999992,326.3261682000011,328.11180919999606,None,1,,,,000008,001,2024-10-09_12h17.30.296,cpt_test,2024.2.2,60.10576209262411,2024-10-09 12h20.30.718868 -0600,
90,I,0,None,89,89,0,None,1,,,0,89,89,89,328.12528139998903,,,,,,,,,,,328.1120088000025,328.12528139998903,328.12528139998903,328.30847249997896,328.3248598999926,330.11096160000307,None,1,,,,000008,001,2024-10-09_12h17.30.296,cpt_test,2024.2.2,60.10576209262411,2024-10-09 12h20.30.718868 -0600,
91,P,0,None,90,90,0,None,1,,,0,90,90,90,330.1237393000047,,,,,,,,,,,330.111199499981,330.1237393000047,330.1237393000047,330.3066697999893,330.3231772999861,332.1074461999815,None,1,,,,000008,001,2024-10-09_12h17.30.296,cpt_test,2024.2.2,60.10576209262411,2024-10-09 12h20.30.718868 -0600,
92,X,1,x,91,91,0,x,1,0.40976039998349734,0.1706597000011243,0,91,91,91,332.1228293000022,,,,,,,,,,,332.1076181999815,332.1228293000022,332.1228293000022,332.30499839998083,332.3381662000029,334.1058925999969,x,1,0.40976039998349734,0.1706597000011243,,000008,001,2024-10-09_12h17.30.296,cpt_test,2024.2.2,60.10576209262411,2024-10-09 12h20.30.718868 -0600,
93,B,0,None,92,92,0,None,1,,,0,92,92,92,334.1202354999841,,,,,,,,,,,334.10606369999005,334.1202354999841,334.1202354999841,334.303554299986,334.3198621000047,336.105564700003,None,1,,,,000008,001,2024-10-09_12h17.30.296,cpt_test,2024.2.2,60.10576209262411,2024-10-09 12h20.30.718868 -0600,
94,M,0,None,93,93,0,None,1,,,0,93,93,93,336.11853529998916,,,,,,,,,,,336.10577829999966,336.11853529998916,336.11853529998916,336.30170839998755,336.31815199999255,338.1029234000016,None,1,,,,000008,001,2024-10-09_12h17.30.296,cpt_test,2024.2.2,60.10576209262411,2024-10-09 12h20.30.718868 -0600,
95,B,0,None,94,94,0,None,1,,,0,94,94,94,338.1172391999862,,,,,,,,,,,338.10309950000374,338.1172391999862,338.1172391999862,338.3000872999837,338.3164514999953,340.1017758999951,None,1,,,,000008,001,2024-10-09_12h17.30.296,cpt_test,2024.2.2,60.10576209262411,2024-10-09 12h20.30.718868 -0600,
96,I,0,None,95,95,0,None,1,,,0,95,95,95,340.1152812000073,,,,,,,,,,,340.1019895999925,340.1152812000073,340.1152812000073,340.31475980000687,340.31475980000687,342.11678009998286,None,1,,,,000008,001,2024-10-09_12h17.30.296,cpt_test,2024.2.2,60.10576209262411,2024-10-09 12h20.30.718868 -0600,
97,X,1,x,96,96,0,x,1,0.4213187999848742,0.1771335000230465,0,96,96,96,342.130408099998,,,,,,,,,,,342.11698399999295,342.130408099998,342.130408099998,342.31355259998236,342.3298033000028,344.1143844999897,x,1,0.4213187999848742,0.1771335000230465,,000008,001,2024-10-09_12h17.30.296,cpt_test,2024.2.2,60.10576209262411,2024-10-09 12h20.30.718868 -0600,
98,J,0,None,97,97,0,None,1,,,0,97,97,97,344.1284633000032,,,,,,,,,,,344.11453749999055,344.1284633000032,344.1284633000032,344.311664799985,344.32813700000406,346.1130732999882,None,1,,,,000008,001,2024-10-09_12h17.30.296,cpt_test,2024.2.2,60.10576209262411,2024-10-09 12h20.30.718868 -0600,
99,X,1,x,98,98,0,x,1,0.36737859999993816,0.18207179999444634,0,98,98,98,346.12690559998737,,,,,,,,,,,346.1132549000031,346.12690559998737,346.12690559998737,346.31069009998464,346.3269109999819,348.1109146999952,x,1,0.36737859999993816,0.18207179999444634,,000008,001,2024-10-09_12h17.30.296,cpt_test,2024.2.2,60.10576209262411,2024-10-09 12h20.30.718868 -0600,
100,U,0,None,99,99,0,None,1,,,0,99,99,99,348.12549350000336,,,,,,,,,,,348.11107569999876,348.12549350000336,348.12549350000336,348.30863809998846,348.32481449999614,350.1106307999871,None,1,,,,000008,001,2024-10-09_12h17.30.296,cpt_test,2024.2.2,60.10576209262411,2024-10-09 12h20.30.718868 -0600,
101,D,0,None,100,100,0,None,1,,,0,100,100,100,350.12360869999975,,,,,,,,,,,350.1108472000051,350.12360869999975,350.12360869999975,350.3070460000017,350.32331360000535,352.1079211999895,None,1,,,,000008,001,2024-10-09_12h17.30.296,cpt_test,2024.2.2,60.10576209262411,2024-10-09 12h20.30.718868 -0600,
102,X,1,x,101,101,0,x,1,0.45691029998124577,0.1772530000016559,0,101,101,101,352.12200559998746,,,,,,,,,,,352.108106700005,352.12200559998746,352.12200559998746,352.3055172000022,352.3217057999864,354.1060177999898,x,1,0.45691029998124577,0.1772530000016559,,000008,001,2024-10-09_12h17.30.296,cpt_test,2024.2.2,60.10576209262411,2024-10-09 12h20.30.718868 -0600,
103,X,1,x,102,102,0,x,1,0.574789599981159,0.18280310000409372,0,102,102,102,354.1203908000025,,,,,,,,,,,354.10618479998084,354.1203908000025,354.1203908000025,354.3037123999966,354.32014239998534,356.10465749999275,x,1,0.574789599981159,0.18280310000409372,,000008,001,2024-10-09_12h17.30.296,cpt_test,2024.2.2,60.10576209262411,2024-10-09 12h20.30.718868 -0600,
104,N,0,None,103,103,0,None,1,,,0,103,103,103,356.1188014000072,,,,,,,,,,,356.10483909997856,356.1188014000072,356.1188014000072,356.3022701999871,356.3185281000042,358.1029068999924,None,1,,,,000008,001,2024-10-09_12h17.30.296,cpt_test,2024.2.2,60.10576209262411,2024-10-09 12h20.30.718868 -0600,
105,U,0,None,104,104,0,None,1,,,0,104,104,104,358.1170982999902,,,,,,,,,,,358.10306819999823,358.1170982999902,358.1170982999902,358.3005351999891,358.316559400002,360.10125269999844,None,1,,,,000008,001,2024-10-09_12h17.30.296,cpt_test,2024.2.2,60.10576209262411,2024-10-09 12h20.30.718868 -0600,
106,T,0,None,105,105,0,None,1,,,0,105,105,105,360.11556879998534,,,,,,,,,,,360.101411599986,360.11556879998534,360.11556879998534,360.31497849998414,360.31497849998414,362.1161654999887,None,1,,,,000008,001,2024-10-09_12h17.30.296,cpt_test,2024.2.2,60.10576209262411,2024-10-09 12h20.30.718868 -0600,
107,W,0,None,106,106,0,None,1,,,0,106,106,106,362.1306265000021,,,,,,,,,,,362.11631929999567,362.1306265000021,362.1306265000021,362.31407160000526,362.3298875000037,364.1145443999849,None,1,,,,000008,001,2024-10-09_12h17.30.296,cpt_test,2024.2.2,60.10576209262411,2024-10-09 12h20.30.718868 -0600,
108,N,0,None,107,107,0,None,1,,,0,107,107,107,364.12921939999796,,,,,,,,,,,364.1147002999787,364.12921939999796,364.12921939999796,364.31184989999747,364.328509199986,366.11261929999455,None,1,,,,000008,001,2024-10-09_12h17.30.296,cpt_test,2024.2.2,60.10576209262411,2024-10-09 12h20.30.718868 -0600,
109,R,0,None,108,108,0,None,1,,,0,108,108,108,366.1272122999944,,,,,,,,,,,366.1127659000049,366.1272122999944,366.1272122999944,366.3103254000016,366.32669749998604,368.1116590999882,None,1,,,,000008,001,2024-10-09_12h17.30.296,cpt_test,2024.2.2,60.10576209262411,2024-10-09 12h20.30.718868 -0600,
110,X,1,x,109,109,0,x,1,0.3894571000128053,0.18054790000314824,0,109,109,109,368.1257959000068,,,,,,,,,,,368.11182649998227,368.1257959000068,368.1257959000068,368.30879589999677,368.3250954999821,370.1102057999815,x,1,0.3894571000128053,0.18054790000314824,,000008,001,2024-10-09_12h17.30.296,cpt_test,2024.2.2,60.10576209262411,2024-10-09 12h20.30.718868 -0600,
111,A,0,None,110,110,0,None,1,,,0,110,110,110,370.1240012999915,,,,,,,,,,,370.1103982999921,370.1240012999915,370.1240012999915,370.3070827999909,370.32334619999165,372.10822589998133,None,1,,,,000008,001,2024-10-09_12h17.30.296,cpt_test,2024.2.2,60.10576209262411,2024-10-09 12h20.30.718868 -0600,
112,X,1,x,111,111,0,x,1,0.4077052000211552,0.17297549999784678,0,111,111,111,372.1224911999889,,,,,,,,,,,372.1083806999959,372.1224911999889,372.1224911999889,372.30540069998824,372.32214959998964,374.10669699998107,x,1,0.4077052000211552,0.17297549999784678,,000008,001,2024-10-09_12h17.30.296,cpt_test,2024.2.2,60.10576209262411,2024-10-09 12h20.30.718868 -0600,
113,G,0,None,112,112,0,None,1,,,0,112,112,112,374.1206667999795,,,,,,,,,,,374.10686699999496,374.1206667999795,374.1206667999795,374.30416579998564,374.3199967999826,376.10511229999247,None,1,,,,000008,001,2024-10-09_12h17.30.296,cpt_test,2024.2.2,60.10576209262411,2024-10-09 12h20.30.718868 -0600,
114,O,0,None,113,113,0,None,1,,,0,113,113,113,376.11895079998067,,,,,,,,,,,376.1052897000045,376.11895079998067,376.11895079998067,376.30235909999465,376.3186652000004,378.1027533999877,None,1,,,,000008,001,2024-10-09_12h17.30.296,cpt_test,2024.2.2,60.10576209262411,2024-10-09 12h20.30.718868 -0600,
115,U,0,None,114,114,0,None,1,,,0,114,114,114,378.1173318999936,,,,,,,,,,,378.10290199998417,378.1173318999936,378.1173318999936,378.3007125000004,378.3170264000073,380.101502799982,None,1,,,,000008,001,2024-10-09_12h17.30.296,cpt_test,2024.2.2,60.10576209262411,2024-10-09 12h20.30.718868 -0600,
116,X,1,x,115,115,0,x,1,0.4034520999994129,0.18304229999193922,0,115,115,115,380.11591389999376,,,,,,,,,,,380.1016568999912,380.11591389999376,380.11591389999376,380.31528559999424,380.31528559999424,382.116525999998,x,1,0.4034520999994129,0.18304229999193922,,000008,001,2024-10-09_12h17.30.296,cpt_test,2024.2.2,60.10576209262411,2024-10-09 12h20.30.718868 -0600,
117,X,1,x,116,116,0,x,1,0.36588989998563193,0.15833820000989363,0,116,116,116,382.13086390000535,,,,,,,,,,,382.1166880999808,382.13086390000535,382.13086390000535,382.31359089998296,382.33000109999557,384.11503319998155,x,1,0.36588989998563193,0.15833820000989363,,000008,001,2024-10-09_12h17.30.296,cpt_test,2024.2.2,60.10576209262411,2024-10-09 12h20.30.718868 -0600,
118,C,0,None,117,117,0,None,1,,,0,117,117,117,384.12935839997954,,,,,,,,,,,384.1152092999837,384.12935839997954,384.12935839997954,384.3123760999879,384.32858589998796,386.1133262999938,None,1,,,,000008,001,2024-10-09_12h17.30.296,cpt_test,2024.2.2,60.10576209262411,2024-10-09 12h20.30.718868 -0600,
119,A,0,None,118,118,0,None,1,,,0,118,118,118,386.1274351000029,,,,,,,,,,,386.11348219998763,386.1274351000029,386.1274351000029,386.31074549999903,386.3270021000062,388.11303949999274,None,1,,,,000008,001,2024-10-09_12h17.30.296,cpt_test,2024.2.2,60.10576209262411,2024-10-09 12h20.30.718868 -0600,
120,X,1,x,119,119,0,x,1,0.5078399000049103,0.21122660001856275,0,119,119,119,388.12624739998137,,,,,,,,,,,388.1131854999985,388.12624739998137,388.12624739998137,388.309053200006,388.3253889000043,390.11074269999517,x,1,0.5078399000049103,0.21122660001856275,,000008,001,2024-10-09_12h17.30.296,cpt_test,2024.2.2,60.10576209262411,2024-10-09 12h20.30.718868 -0600,
121,H,0,None,120,120,0,None,1,,,0,120,120,120,390.12408239999786,,,,,,,,,,,390.1109554999857,390.12408239999786,390.12408239999786,390.3072412000038,390.32381089997943,392.1081972999964,None,1,,,,000008,001,2024-10-09_12h17.30.296,cpt_test,2024.2.2,60.10576209262411,2024-10-09 12h20.30.718868 -0600,
122,M,0,None,121,121,0,None,1,,,0,121,121,121,392.122852600005,,,,,,,,,,,392.10833679998177,392.122852600005,392.122852600005,392.3059032000019,392.32207530000596,394.1070293999801,None,1,,,,000008,001,2024-10-09_12h17.30.296,cpt_test,2024.2.2,60.10576209262411,2024-10-09 12h20.30.718868 -0600,
123,V,0,None,122,122,0,None,1,,,0,122,122,122,394.1209764999803,,,,,,,,,,,394.10721289998037,394.1209764999803,394.1209764999803,394.30372979998356,394.3204208999814,396.1057957999874,None,1,,,,000008,001,2024-10-09_12h17.30.296,cpt_test,2024.2.2,60.10576209262411,2024-10-09 12h20.30.718868 -0600,
124,K,0,None,123,123,0,None,1,,,0,123,123,123,396.11908199999016,,,,,,,,,,,396.1059993999952,396.11908199999016,396.11908199999016,396.30239189998247,396.3186682999949,398.1037412000005,None,1,,,,000008,001,2024-10-09_12h17.30.296,cpt_test,2024.2.2,60.10576209262411,2024-10-09 12h20.30.718868 -0600,
125,G,0,None,124,124,0,None,1,,,0,124,124,124,398.1177181999956,,,,,,,,,,,398.1039243999985,398.1177181999956,398.1177181999956,398.3008547000063,398.316909199988,400.10175050000544,None,1,,,,000008,001,2024-10-09_12h17.30.296,cpt_test,2024.2.2,60.10576209262411,2024-10-09 12h20.30.718868 -0600,
126,A,0,None,125,125,0,None,1,,,0,125,125,125,400.1159184999997,,,,,,,,,,,400.10191989998566,400.1159184999997,400.1159184999997,400.3155114999972,400.3155114999972,402.1163336999889,None,1,,,,000008,001,2024-10-09_12h17.30.296,cpt_test,2024.2.2,60.10576209262411,2024-10-09 12h20.30.718868 -0600,
127,X,1,x,126,126,0,x,1,0.43154009999125265,0.17544739998993464,0,126,126,126,402.131057599996,,,,,,,,,,,402.11649580000085,402.131057599996,402.131057599996,402.3141312999942,402.33032039998216,404.1150125999993,x,1,0.43154009999125265,0.17544739998993464,,000008,001,2024-10-09_12h17.30.296,cpt_test,2024.2.2,60.10576209262411,2024-10-09 12h20.30.718868 -0600,
128,N,0,None,127,127,0,None,1,,,0,127,127,127,404.1293533999997,,,,,,,,,,,404.1151930000051,404.1293533999997,404.1293533999997,404.31247059997986,404.3286080999824,406.1142112999805,None,1,,,,000008,001,2024-10-09_12h17.30.296,cpt_test,2024.2.2,60.10576209262411,2024-10-09 12h20.30.718868 -0600,
129,Y,0,None,128,128,0,None,1,,,0,128,128,128,406.12750050000614,,,,,,,,,,,406.11440859999857,406.12750050000614,406.12750050000614,406.3108490000013,406.32723900000565,408.1122520999925,None,1,,,,000008,001,2024-10-09_12h17.30.296,cpt_test,2024.2.2,60.10576209262411,2024-10-09 12h20.30.718868 -0600,
130,W,0,None,129,129,0,None,1,,,0,129,129,129,408.12616849999176,,,,,,,,,,,408.1124472999945,408.12616849999176,408.12616849999176,408.3096871000016,408.3255672999949,410.11086509999586,None,1,,,,000008,001,2024-10-09_12h17.30.296,cpt_test,2024.2.2,60.10576209262411,2024-10-09 12h20.30.718868 -0600,
131,L,0,None,130,130,0,None,1,,,0,130,130,130,410.1244658000069,,,,,,,,,,,410.11107029998675,410.1244658000069,410.1244658000069,410.3076194000023,410.32396139999037,412.10801319999155,None,1,,,,000008,001,2024-10-09_12h17.30.296,cpt_test,2024.2.2,60.10576209262411,2024-10-09 12h20.30.718868 -0600,
132,F,0,None,131,131,0,None,1,,,0,131,131,131,412.1227345999796,,,,,,,,,,,412.10815829999046,412.1227345999796,412.1227345999796,412.3059479999938,412.3220340999833,414.1074050999887,None,1,,,,000008,001,2024-10-09_12h17.30.296,cpt_test,2024.2.2,60.10576209262411,2024-10-09 12h20.30.718868 -0600,
133,E,0,None,132,132,0,None,1,,,0,132,132,132,414.12116039998364,,,,,,,,,,,414.1076008999953,414.12116039998364,414.12116039998364,414.30427829999826,414.32064689998515,416.1058735999977,None,1,,,,000008,001,2024-10-09_12h17.30.296,cpt_test,2024.2.2,60.10576209262411,2024-10-09 12h20.30.718868 -0600,
134,L,0,None,133,133,0,None,1,,,0,133,133,133,416.11935809999704,,,,,,,,,,,416.10606389999157,416.11935809999704,416.11935809999704,416.3022995000065,416.3188450000016,418.1044636000006,None,1,,,,000008,001,2024-10-09_12h17.30.296,cpt_test,2024.2.2,60.10576209262411,2024-10-09 12h20.30.718868 -0600,
135,K,0,None,134,134,0,None,1,,,0,134,134,134,418.11761429999024,,,,,,,,,,,418.1046448999841,418.11761429999024,418.11761429999024,418.3010208999913,418.3173187999928,420.10191289999057,None,1,,,,000008,001,2024-10-09_12h17.30.296,cpt_test,2024.2.2,60.10576209262411,2024-10-09 12h20.30.718868 -0600,
136,Q,0,None,135,135,0,None,1,,,0,135,135,135,420.11641590000363,,,,,,,,,,,420.1020783999993,420.11641590000363,420.11641590000363,420.3156246999861,420.3156246999861,422.11678119999124,None,1,,,,000008,001,2024-10-09_12h17.30.296,cpt_test,2024.2.2,60.10576209262411,2024-10-09 12h20.30.718868 -0600,
137,X,1,x,136,136,0,x,1,0.3705552000028547,0.1995454999851063,0,136,136,136,422.13102840000647,,,,,,,,,,,422.1169349999982,422.13102840000647,422.13102840000647,422.31434199999785,422.33093149997876,424.11511499999324,x,1,0.3705552000028547,0.1995454999851063,,000008,001,2024-10-09_12h17.30.296,cpt_test,2024.2.2,60.10576209262411,2024-10-09 12h20.30.718868 -0600,
138,J,0,None,137,137,0,None,1,,,0,137,137,137,424.1295615999843,,,,,,,,,,,424.1152824999881,424.1295615999843,424.1295615999843,424.31274389999453,424.3290493999957,426.1134839000006,None,1,,,,000008,001,2024-10-09_12h17.30.296,cpt_test,2024.2.2,60.10576209262411,2024-10-09 12h20.30.718868 -0600,
139,X,1,x,138,138,0,x,1,0.45005369998398237,0.18529180000768974,0,138,138,138,426.1281136999896,,,,,,,,,,,426.1136345999839,426.1281136999896,426.1281136999896,426.31120809999993,426.3273835,428.11237329998403,x,1,0.45005369998398237,0.18529180000768974,,000008,001,2024-10-09_12h17.30.296,cpt_test,2024.2.2,60.10576209262411,2024-10-09 12h20.30.718868 -0600,
140,E,0,None,139,139,0,None,1,,,0,139,139,139,428.1260176000069,,,,,,,,,,,428.1125628000009,428.1260176000069,428.1260176000069,428.30919959998573,428.32575289998204,430.11150629998883,None,1,,,,000008,001,2024-10-09_12h17.30.296,cpt_test,2024.2.2,60.10576209262411,2024-10-09 12h20.30.718868 -0600,
141,T,0,None,140,140,0,None,1,,,0,140,140,140,430.12451009999495,,,,,,,,,,,430.1117231999815,430.12451009999495,430.12451009999495,430.30763189998106,430.3240292999835,432.10837459997856,None,1,,,,000008,001,2024-10-09_12h17.30.296,cpt_test,2024.2.2,60.10576209262411,2024-10-09 12h20.30.718868 -0600,
142,X,1,x,141,141,0,x,1,0.9200204999942798,0.17154710000613704,0,141,141,141,432.122881999996,,,,,,,,,,,432.10853189998306,432.122881999996,432.122881999996,432.30612930000643,432.32247300000745,434.10681739999563,x,1,0.9200204999942798,0.17154710000613704,,000008,001,2024-10-09_12h17.30.296,cpt_test,2024.2.2,60.10576209262411,2024-10-09 12h20.30.718868 -0600,
143,Q,0,None,142,142,0,None,1,,,0,142,142,142,434.1212323999789,,,,,,,,,,,434.10697589998017,434.1212323999789,434.1212323999789,434.3047610000067,434.3207318999921,436.1053401999816,None,1,,,,000008,001,2024-10-09_12h17.30.296,cpt_test,2024.2.2,60.10576209262411,2024-10-09 12h20.30.718868 -0600,
144,V,0,None,143,143,0,None,1,,,0,143,143,143,436.1195008000068,,,,,,,,,,,436.10549919999903,436.1195008000068,436.1195008000068,436.302858799987,436.31913329998497,438.10559490000014,None,1,,,,000008,001,2024-10-09_12h17.30.296,cpt_test,2024.2.2,60.10576209262411,2024-10-09 12h20.30.718868 -0600,
145,Y,0,None,144,144,0,None,1,,,0,144,144,144,438.11799949998385,,,,,,,,,,,438.10584449997987,438.11799949998385,438.11799949998385,438.30118109998875,438.3175233999791,440.1025288999954,None,1,,,,000008,001,2024-10-09_12h17.30.296,cpt_test,2024.2.2,60.10576209262411,2024-10-09 12h20.30.718868 -0600,
146,O,0,None,145,145,0,None,1,,,0,145,145,145,440.11623009998584,,,,,,,,,,,440.1027050999983,440.11623009998584,440.11623009998584,440.29958239998086,440.31586050000624,442.1171190000023,None,1,,,442.1145231999981,000008,001,2024-10-09_12h17.30.296,cpt_test,2024.2.2,60.10576209262411,2024-10-09 12h20.30.718868 -0600,
147,T,0,None,146,146,0,None,1,,,0,146,146,146,442.1312976999907,,,,,,,,,,,442.1172668999934,442.1312976999907,442.1312976999907,442.3146132999973,442.3308197000006,444.11566630000016,None,1,,,,000008,001,2024-10-09_12h17.30.296,cpt_test,2024.2.2,60.10576209262411,2024-10-09 12h20.30.718868 -0600,
148,X,1,x,147,147,0,x,1,0.40603730001021177,0.1869326000160072,0,147,147,147,444.1295124999888,,,,,,,,,,,444.1158472999814,444.1295124999888,444.1295124999888,444.3128138000029,444.32934369999566,446.1147238999838,x,1,0.40603730001021177,0.1869326000160072,,000008,001,2024-10-09_12h17.30.296,cpt_test,2024.2.2,60.10576209262411,2024-10-09 12h20.30.718868 -0600,
149,T,0,None,148,148,0,None,1,,,0,148,148,148,446.1280516999832,,,,,,,,,,,446.1149327000021,446.1280516999832,446.1280516999832,446.3112702999788,446.32757920000586,448.11276499999803,None,1,,,,000008,001,2024-10-09_12h17.30.296,cpt_test,2024.2.2,60.10576209262411,2024-10-09 12h20.30.718868 -0600,
150,S,0,None,149,149,0,None,1,,,0,149,149,149,448.12645700000576,,,,,,,,,,,448.11294809999526,448.12645700000576,448.12645700000576,448.3098043999926,448.3258711999806,450.1100982000062,None,1,,,,000008,001,2024-10-09_12h17.30.296,cpt_test,2024.2.2,60.10576209262411,2024-10-09 12h20.30.718868 -0600,
151,L,0,None,150,150,0,None,1,,,0,150,150,150,450.12469219998457,,,,,,,,,,,450.11023999997997,450.12469219998457,450.12469219998457,450.3076599999913,450.3242042000056,452.1084547000064,None,1,,,,000008,001,2024-10-09_12h17.30.296,cpt_test,2024.2.2,60.10576209262411,2024-10-09 12h20.30.718868 -0600,
152,V,0,None,151,151,0,None,1,,,0,151,151,151,452.123233899998,,,,,,,,,,,452.10859769998933,452.123233899998,452.123233899998,452.3064772999787,452.32273970000097,454.10806229998707,None,1,,,,000008,001,2024-10-09_12h17.30.296,cpt_test,2024.2.2,60.10576209262411,2024-10-09 12h20.30.718868 -0600,
153,C,0,None,152,152,0,None,1,,,0,152,152,152,454.12141960000736,,,,,,,,,,,454.10826489998726,454.12141960000736,454.12141960000736,454.30443009999,454.3210009000031,456.1058342999895,None,1,,,,000008,001,2024-10-09_12h17.30.296,cpt_test,2024.2.2,60.10576209262411,2024-10-09 12h20.30.718868 -0600,
154,U,0,None,153,153,0,None,1,,,0,153,153,153,456.11957310000435,,,,,,,,,,,456.1060063999903,456.11957310000435,456.11957310000435,456.3029661999899,456.3195316999918,458.10400530000334,None,1,,,,000008,001,2024-10-09_12h17.30.296,cpt_test,2024.2.2,60.10576209262411,2024-10-09 12h20.30.718868 -0600,
155,X,1,x,154,154,0,x,1,0.44781509999302216,0.21482220001053065,0,154,154,154,458.1183260999969,,,,,,,,,,,458.10417370000505,458.1183260999969,458.1183260999969,458.3014409999887,458.31783270000597,460.1027044999937,x,1,0.44781509999302216,0.21482220001053065,,000008,001,2024-10-09_12h17.30.296,cpt_test,2024.2.2,60.10576209262411,2024-10-09 12h20.30.718868 -0600,
156,X,1,x,155,155,0,x,1,0.4985854999977164,0.205385400011437,0,155,155,155,460.1165492,,,,,,,,,,,460.1029201000056,460.1165492,460.1165492,460.2995304999931,460.31604649999645,462.1172111000051,x,1,0.4985854999977164,0.205385400011437,462.11447899998166,000008,001,2024-10-09_12h17.30.296,cpt_test,2024.2.2,60.10576209262411,2024-10-09 12h20.30.718868 -0600,
157,L,0,None,156,156,0,None,1,,,0,156,156,156,462.1315980999789,,,,,,,,,,,462.11737989998073,462.1315980999789,462.1315980999789,462.31454039999517,462.3311838999798,464.11549739999464,None,1,,,,000008,001,2024-10-09_12h17.30.296,cpt_test,2024.2.2,60.10576209262411,2024-10-09 12h20.30.718868 -0600,
158,W,0,None,157,157,0,None,1,,,0,157,157,157,464.13006749999477,,,,,,,,,,,464.1156537999923,464.13006749999477,464.13006749999477,464.3131563999923,464.32933539999067,466.1149818999984,None,1,,,,000008,001,2024-10-09_12h17.30.296,cpt_test,2024.2.2,60.10576209262411,2024-10-09 12h20.30.718868 -0600,
159,A,0,None,158,158,0,None,1,,,0,158,158,158,466.1280979999865,,,,,,,,,,,466.11519179999596,466.1280979999865,466.1280979999865,466.311507299979,466.3278056999843,468.11246559998835,None,1,,,,000008,001,2024-10-09_12h17.30.296,cpt_test,2024.2.2,60.10576209262411,2024-10-09 12h20.30.718868 -0600,
160,X,1,x,159,159,0,x,1,0.4438081000116654,0.18434969999361783,0,159,159,159,468.12679099998786,,,,,,,,,,,468.11260530000436,468.12679099998786,468.12679099998786,468.3096114999789,468.3262276999885,470.1109418999986,x,1,0.4438081000116654,0.18434969999361783,,000008,001,2024-10-09_12h17.30.296,cpt_test,2024.2.2,60.10576209262411,2024-10-09 12h20.30.718868 -0600,
161,A,0,None,160,160,0,None,1,,,0,160,160,160,470.12512559999595,,,,,,,,,,,470.1111233999836,470.12512559999595,470.12512559999595,470.30797470000107,470.32453270000406,472.10896320000757,None,1,,,,000008,001,2024-10-09_12h17.30.296,cpt_test,2024.2.2,60.10576209262411,2024-10-09 12h20.30.718868 -0600,
162,M,0,None,161,161,0,None,1,,,0,161,161,161,472.1234476999962,,,,,,,,,,,472.10912239999743,472.1234476999962,472.1234476999962,472.3066653999849,472.322800599999,474.1077011000016,None,1,,,,000008,001,2024-10-09_12h17.30.296,cpt_test,2024.2.2,60.10576209262411,2024-10-09 12h20.30.718868 -0600,
163,X,1,x,162,162,0,x,1,0.4066185000119731,0.17603930001496337,0,162,162,162,474.12160099999164,,,,,,,,,,,474.1078702999803,474.12160099999164,474.12160099999164,474.30490190000273,474.32126959998277,476.10562459999346,x,1,0.4066185000119731,0.17603930001496337,,000008,001,2024-10-09_12h17.30.296,cpt_test,2024.2.2,60.10576209262411,2024-10-09 12h20.30.718868 -0600,
164,X,1,x,163,163,0,x,1,0.44502949999878183,0.17639119998784736,0,163,163,163,476.11975009998423,,,,,,,,,,,476.1057957999874,476.11975009998423,476.11975009998423,476.30305269997916,476.31958839998697,478.10404330000165,x,1,0.44502949999878183,0.17639119998784736,,000008,001,2024-10-09_12h17.30.296,cpt_test,2024.2.2,60.10576209262411,2024-10-09 12h20.30.718868 -0600,
165,K,0,None,164,164,0,None,1,,,0,164,164,164,478.1185845999862,,,,,,,,,,,478.1042069999967,478.1185845999862,478.1185845999862,478.3014153999975,478.3178183999844,480.1025029000011,None,1,,,,000008,001,2024-10-09_12h17.30.296,cpt_test,2024.2.2,60.10576209262411,2024-10-09 12h20.30.718868 -0600,
166,X,1,x,165,165,0,x,1,0.4178470999759156,0.16375330000300892,0,165,165,165,480.11685150000267,,,,,,,,,,,480.10267570000724,480.11685150000267,480.11685150000267,480.2998327999958,480.316202099988,482.1007309999841,x,1,0.4178470999759156,0.16375330000300892,,000008,001,2024-10-09_12h17.30.296,cpt_test,2024.2.2,60.10576209262411,2024-10-09 12h20.30.718868 -0600,
167,M,0,None,166,166,0,None,1,,,0,166,166,166,482.1152164999803,,,,,,,,,,,482.10088169999653,482.1152164999803,482.1152164999803,482.31455359997926,482.31455359997926,484.11609369999496,None,1,,,,000008,001,2024-10-09_12h17.30.296,cpt_test,2024.2.2,60.10576209262411,2024-10-09 12h20.30.718868 -0600,
168,X,1,x,167,167,0,x,1,0.4511032000009436,0.19658859999617562,0,167,167,167,484.1299594999873,,,,,,,,,,,484.11626290000277,484.1299594999873,484.1299594999873,484.3130730999983,484.32968470000196,486.1142244999937,x,1,0.4511032000009436,0.19658859999617562,,000008,001,2024-10-09_12h17.30.296,cpt_test,2024.2.2,60.10576209262411,2024-10-09 12h20.30.718868 -0600,
169,A,0,None,168,168,0,None,1,,,0,168,168,168,486.1286459999974,,,,,,,,,,,486.1143890999956,486.1286459999974,486.1286459999974,486.3114690000075,486.32808449998265,488.1123958999815,None,1,,,,000008,001,2024-10-09_12h17.30.296,cpt_test,2024.2.2,60.10576209262411,2024-10-09 12h20.30.718868 -0600,
170,X,1,x,169,169,0,x,1,0.5008670000243001,0.19707379999454133,0,169,169,169,488.12696389999473,,,,,,,,,,,488.11254919998464,488.12696389999473,488.12696389999473,488.30982829999994,488.32614869999816,490.11066199999186,x,1,0.5008670000243001,0.19707379999454133,,000008,001,2024-10-09_12h17.30.296,cpt_test,2024.2.2,60.10576209262411,2024-10-09 12h20.30.718868 -0600,
171,L,0,None,170,170,0,None,1,,,0,170,170,170,490.1248915999895,,,,,,,,,,,490.11081779998494,490.1248915999895,490.1248915999895,490.3084190999798,490.32472129998496,492.10915489998297,None,1,,,,000008,001,2024-10-09_12h17.30.296,cpt_test,2024.2.2,60.10576209262411,2024-10-09 12h20.30.718868 -0600,
172,E,0,None,171,171,0,None,1,,,0,171,171,171,492.1232100999914,,,,,,,,,,,492.10930339997867,492.1232100999914,492.1232100999914,492.3067187999841,492.32279330000165,494.10747369998717,None,1,,,,000008,001,2024-10-09_12h17.30.296,cpt_test,2024.2.2,60.10576209262411,2024-10-09 12h20.30.718868 -0600,
173,T,0,None,172,172,0,None,1,,,0,172,172,172,494.12173290000646,,,,,,,,,,,494.1076216000074,494.12173290000646,494.12173290000646,494.3051273000019,494.3212375000003,496.1062083999859,None,1,,,,000008,001,2024-10-09_12h17.30.296,cpt_test,2024.2.2,60.10576209262411,2024-10-09 12h20.30.718868 -0600,
174,F,0,None,173,173,0,None,1,,,0,173,173,173,496.1199713999813,,,,,,,,,,,496.1063848999911,496.1199713999813,496.1199713999813,496.30345710000256,496.3198570999957,498.1045070999826,None,1,,,,000008,001,2024-10-09_12h17.30.296,cpt_test,2024.2.2,60.10576209262411,2024-10-09 12h20.30.718868 -0600,
175,M,0,None,174,174,0,None,1,,,0,174,174,174,498.1183095999877,,,,,,,,,,,498.10467119998066,498.1183095999877,498.1183095999877,498.301492300001,498.31810649999534,500.1025456000061,None,1,,,,000008,001,2024-10-09_12h17.30.296,cpt_test,2024.2.2,60.10576209262411,2024-10-09 12h20.30.718868 -0600,
176,Q,0,None,175,175,0,None,1,,,0,175,175,175,500.1170420999988,,,,,,,,,,,500.10270980000496,500.1170420999988,500.1170420999988,500.2998626999906,500.31634140000097,502.1009826999798,None,1,,,,000008,001,2024-10-09_12h17.30.296,cpt_test,2024.2.2,60.10576209262411,2024-10-09 12h20.30.718868 -0600,
177,M,0,None,176,176,0,None,1,,,0,176,176,176,502.1151239000028,,,,,,,,,,,502.1011402999866,502.1151239000028,502.1151239000028,502.31496170000173,502.31496170000173,504.11596639998606,None,1,,,,000008,001,2024-10-09_12h17.30.296,cpt_test,2024.2.2,60.10576209262411,2024-10-09 12h20.30.718868 -0600,
178,X,1,x,177,177,0,x,1,0.48726699998951517,0.1999968999880366,0,177,177,177,504.1299607999972,,,,,,,,,,,504.1161329000024,504.1299607999972,504.1299607999972,504.31336119998014,504.3297706999874,506.1145311,x,1,0.48726699998951517,0.1999968999880366,,000008,001,2024-10-09_12h17.30.296,cpt_test,2024.2.2,60.10576209262411,2024-10-09 12h20.30.718868 -0600,
179,V,0,None,178,178,0,None,1,,,0,178,178,178,506.1286121000012,,,,,,,,,,,506.11470770000597,506.1286121000012,506.1286121000012,506.3118440999824,506.32820839999476,508.1127445999882,None,1,,,,000008,001,2024-10-09_12h17.30.296,cpt_test,2024.2.2,60.10576209262411,2024-10-09 12h20.30.718868 -0600,
180,M,0,None,179,179,0,None,1,,,0,179,179,179,508.12729319999926,,,,,,,,,,,508.1129168999905,508.12729319999926,508.12729319999926,508.3103715000034,508.3265573999961,510.110405799991,None,1,,,,000008,001,2024-10-09_12h17.30.296,cpt_test,2024.2.2,60.10576209262411,2024-10-09 12h20.30.718868 -0600,
181,P,0,None,180,180,0,None,1,,,0,180,180,180,510.12558950000675,,,,,,,,,,,510.1105477999954,510.12558950000675,510.12558950000675,510.30921919998946,510.3264724999899,512.1097748999891,None,1,,,,000008,001,2024-10-09_12h17.30.296,cpt_test,2024.2.2,60.10576209262411,2024-10-09 12h20.30.718868 -0600,
182,K,0,None,181,181,0,None,1,,,0,181,181,181,512.1235118999903,,,,,,,,,,,512.1099207999941,512.1235118999903,512.1235118999903,512.3067380999855,512.3230066999968,514.1077969000034,None,1,,,,000008,001,2024-10-09_12h17.30.296,cpt_test,2024.2.2,60.10576209262411,2024-10-09 12h20.30.718868 -0600,
183,V,0,None,182,182,0,None,1,,,0,182,182,182,514.1218281000038,,,,,,,,,,,514.1079526999965,514.1218281000038,514.1218281000038,514.3054882999859,514.3216449999891,516.1061340000015,None,1,,,,000008,001,2024-10-09_12h17.30.296,cpt_test,2024.2.2,60.10576209262411,2024-10-09 12h20.30.718868 -0600,
184,G,0,None,183,183,0,None,1,,,0,183,183,183,516.1206251999829,,,,,,,,,,,516.1062814999896,516.1206251999829,516.1206251999829,516.303682400001,516.3197562999849,518.1048543999786,None,1,,,,000008,001,2024-10-09_12h17.30.296,cpt_test,2024.2.2,60.10576209262411,2024-10-09 12h20.30.718868 -0600,
185,L,0,None,184,184,0,None,1,,,0,184,184,184,518.1187991999905,,,,,,,,,,,518.1050356999913,518.1187991999905,518.1187991999905,518.3017222000053,518.3181880000047,520.1028927000007,None,1,,,,000008,001,2024-10-09_12h17.30.296,cpt_test,2024.2.2,60.10576209262411,2024-10-09 12h20.30.718868 -0600,
186,Q,0,None,185,185,0,None,1,,,0,185,185,185,520.1173382999841,,,,,,,,,,,520.1030443999916,520.1173382999841,520.1173382999841,520.3003690000041,520.3167937999824,522.1010832999891,None,1,,,,000008,001,2024-10-09_12h17.30.296,cpt_test,2024.2.2,60.10576209262411,2024-10-09 12h20.30.718868 -0600,
187,N,0,None,186,186,0,None,1,,,0,186,186,186,522.115636100003,,,,,,,,,,,522.1012424000073,522.115636100003,522.115636100003,522.3149701999791,522.3149701999791,524.1168651999906,None,1,,,,000008,001,2024-10-09_12h17.30.296,cpt_test,2024.2.2,60.10576209262411,2024-10-09 12h20.30.718868 -0600,
188,K,0,None,187,187,0,None,1,,,0,187,187,187,524.1304563999875,,,,,,,,,,,524.1170733000035,524.1304563999875,524.1304563999875,524.3132630999899,524.3299209999968,526.1155584999942,None,1,,,,000008,001,2024-10-09_12h17.30.296,cpt_test,2024.2.2,60.10576209262411,2024-10-09 12h20.30.718868 -0600,
189,C,0,None,188,188,0,None,1,,,0,188,188,188,526.1288701999874,,,,,,,,,,,526.1157897999801,526.1288701999874,526.1288701999874,526.3120956000057,526.3282793999824,528.1137430999952,None,1,,,,000008,001,2024-10-09_12h17.30.296,cpt_test,2024.2.2,60.10576209262411,2024-10-09 12h20.30.718868 -0600,
190,Z,0,None,189,189,0,None,1,,,0,189,189,189,528.1269406999927,,,,,,,,,,,528.1139372999896,528.1269406999927,528.1269406999927,528.3101459000027,528.3266150999989,530.1120695999998,None,1,,,,000008,001,2024-10-09_12h17.30.296,cpt_test,2024.2.2,60.10576209262411,2024-10-09 12h20.30.718868 -0600,
191,I,0,None,190,190,0,None,1,,,0,190,190,190,530.1254060000065,,,,,,,,,,,530.1122656999796,530.1254060000065,530.1254060000065,530.3089578000072,530.324643800006,532.1099061999994,None,1,,,,000008,001,2024-10-09_12h17.30.296,cpt_test,2024.2.2,60.10576209262411,2024-10-09 12h20.30.718868 -0600,
192,J,0,None,191,191,0,None,1,,,0,191,191,191,532.1238907999941,,,,,,,,,,,532.110081699997,532.1238907999941,532.1238907999941,532.3069031999912,532.3233149999869,534.1072674999887,None,1,,,,000008,001,2024-10-09_12h17.30.296,cpt_test,2024.2.2,60.10576209262411,2024-10-09 12h20.30.718868 -0600,
193,X,1,x,192,192,0,x,1,0.4496176000102423,0.19146859997999854,0,192,192,192,534.1217900000047,,,,,,,,,,,534.1074088999885,534.1217900000047,534.1217900000047,534.3048847999889,534.3213101000001,536.1076452999841,x,1,0.4496176000102423,0.19146859997999854,,000008,001,2024-10-09_12h17.30.296,cpt_test,2024.2.2,60.10576209262411,2024-10-09 12h20.30.718868 -0600,
194,E,0,None,193,193,0,None,1,,,0,193,193,193,536.1205785000056,,,,,,,,,,,536.1078876999964,536.1205785000056,536.1205785000056,536.3035706999945,536.3198653,538.1049386999803,None,1,,,,000008,001,2024-10-09_12h17.30.296,cpt_test,2024.2.2,60.10576209262411,2024-10-09 12h20.30.718868 -0600,
195,X,1,x,194,194,0,x,1,0.5378592000051867,0.1882303000020329,0,194,194,194,538.1187074999907,,,,,,,,,,,538.1051061000035,538.1187074999907,538.1187074999907,538.3021608999989,538.3183736999927,540.1036318999832,x,1,0.5378592000051867,0.1882303000020329,,000008,001,2024-10-09_12h17.30.296,cpt_test,2024.2.2,60.10576209262411,2024-10-09 12h20.30.718868 -0600,
196,X,1,x,195,195,0,x,1,0.5538616999983788,0.19338489999063313,0,195,195,195,540.1173788000015,,,,,,,,,,,540.1038465999882,540.1173788000015,540.1173788000015,540.3001951999904,540.316917899996,542.1017227999982,x,1,0.5538616999983788,0.19338489999063313,,000008,001,2024-10-09_12h17.30.296,cpt_test,2024.2.2,60.10576209262411,2024-10-09 12h20.30.718868 -0600,
197,O,0,None,196,196,0,None,1,,,0,196,196,196,542.1154461999831,,,,,,,,,,,542.1018928999838,542.1154461999831,542.1154461999831,542.3151795000012,542.3151795000012,544.1169545000012,None,1,,,,000008,001,2024-10-09_12h17.30.296,cpt_test,2024.2.2,60.10576209262411,2024-10-09 12h20.30.718868 -0600,
198,X,1,x,197,197,0,x,1,0.4194527000072412,0.169068299990613,0,197,197,197,544.1304744999798,,,,,,,,,,,544.1171512999863,544.1304744999798,544.1304744999798,544.3135148999863,544.3301818000036,546.115430100006,x,1,0.4194527000072412,0.169068299990613,,000008,001,2024-10-09_12h17.30.296,cpt_test,2024.2.2,60.10576209262411,2024-10-09 12h20.30.718868 -0600,
199,T,0,None,198,198,0,None,1,,,0,198,198,198,546.129056100006,,,,,,,,,,,546.1156297999842,546.129056100006,546.129056100006,546.3119869999937,546.328554000007,548.1130092999956,None,1,,,,000008,001,2024-10-09_12h17.30.296,cpt_test,2024.2.2,60.10576209262411,2024-10-09 12h20.30.718868 -0600,
200,X,1,x,199,199,0,x,1,0.4306683999893721,0.15313530000275932,0,199,199,199,548.1275261999981,,,,,,,,,,,548.1131609999866,548.1275261999981,548.1275261999981,548.3104365000036,548.32700379999,550.1119596000062,x,1,0.4306683999893721,0.15313530000275932,,000008,001,2024-10-09_12h17.30.296,cpt_test,2024.2.2,60.10576209262411,2024-10-09 12h20.30.718868 -0600,
201,L,0,None,200,200,0,None,1,,,0,200,200,200,550.1256737000076,,,,,,,,,,,550.1121654000017,550.1256737000076,550.1256737000076,550.3088966000068,550.3250581999891,552.109672599996,None,1,,,,000008,001,2024-10-09_12h17.30.296,cpt_test,2024.2.2,60.10576209262411,2024-10-09 12h20.30.718868 -0600,
