Number,letra,target,correctas,thisN,thisTrialN,thisRepN,respuesta.keys,respuesta.corr,respuesta.rt,respuesta.duration,trials.thisRepN,trials.thisTrialN,trials.thisN,trials.thisIndex,thisRow.t,notes,Ojos_abiertos.started,Abiertos.started,Ojos_abiertos.stopped,Ojos_cerrados.started,Cerrados.started,alert.started,Cerrados.stopped,Ojos_cerrados.stopped,Test.started,prueba.started,respuesta.started,text.started,prueba.stopped,Test.stopped,trials.respuesta.keys,trials.respuesta.corr,trials.respuesta.rt,trials.respuesta.duration,text.stopped,participant,session,date,expName,psychopyVersion,frameRate,expStart,
,,,,,,,,,,,,,,,,,0.017094900002120994,0.02808740000182297,90.01186589999998,,,,,,,,,,,,,,,,,000004,001,2024-10-08_13h18.36.162,cpt_test,2024.2.2,60.19588946420017,2024-10-08 13h18.56.376624 -0600,
,,,,,,,,,,,,,,,,,,,,90.01377180000418,90.02399110000988,150.00660376667318,150.02584670000942,150.10132060000615,,,,,,,,,,,,000004,001,2024-10-08_13h18.36.162,cpt_test,2024.2.2,60.19588946420017,2024-10-08 13h18.56.376624 -0600,
1,A,0,None,0,0,0,None,1,,,0,0,0,0,150.35075720000896,,,,,,,,,,150.15254340000683,150.35075720000896,150.35075720000896,150.36295039999823,150.5560514000099,152.11041839999962,None,1,,,,000004,001,2024-10-08_13h18.36.162,cpt_test,2024.2.2,60.19588946420017,2024-10-08 13h18.56.376624 -0600,
2,R,0,None,1,1,0,None,1,,,0,1,1,1,152.14200370000617,,,,,,,,,,152.11076029999822,152.14200370000617,152.14200370000617,152.30643340000825,152.35480470000766,154.10872859999654,None,1,,,,000004,001,2024-10-08_13h18.36.162,cpt_test,2024.2.2,60.19588946420017,2024-10-08 13h18.56.376624 -0600,
3,L,0,None,2,2,0,None,1,,,0,2,2,2,154.13188700001047,,,,,,,,,,154.10902550000174,154.13188700001047,154.13188700001047,154.3035188000067,154.33626189999632,156.10782940000354,None,1,,,,000004,001,2024-10-08_13h18.36.162,cpt_test,2024.2.2,60.19588946420017,2024-10-08 13h18.56.376624 -0600,
4,X,1,x,3,3,0,x,1,0.30552999999781605,0.19616510000196286,0,3,3,3,156.1340588000021,,,,,,,,,,156.1081886000029,156.1340588000021,156.1340588000021,156.30182459999924,156.33477990000392,158.10690549999708,x,1,0.30552999999781605,0.19616510000196286,,000004,001,2024-10-08_13h18.36.162,cpt_test,2024.2.2,60.19588946420017,2024-10-08 13h18.56.376624 -0600,
5,O,0,None,4,4,0,None,1,,,0,4,4,4,158.1405337000033,,,,,,,,,,158.1073264000006,158.1405337000033,158.1405337000033,158.3060250999988,158.3495305000106,160.1040506999998,None,1,,,,000004,001,2024-10-08_13h18.36.162,cpt_test,2024.2.2,60.19588946420017,2024-10-08 13h18.56.376624 -0600,
6,G,0,None,5,5,0,None,1,,,0,5,5,5,160.13163380000333,,,,,,,,,,160.1043561999977,160.13163380000333,160.13163380000333,160.31503740001062,160.33148619999702,162.102573199998,None,1,,,,000004,001,2024-10-08_13h18.36.162,cpt_test,2024.2.2,60.19588946420017,2024-10-08 13h18.56.376624 -0600,
7,P,0,None,6,6,0,None,1,,,0,6,6,6,162.13137679999636,,,,,,,,,,162.10290559999703,162.13137679999636,162.13137679999636,162.3133974000084,162.3464873000048,164.11711240001023,None,1,,,,000004,001,2024-10-08_13h18.36.162,cpt_test,2024.2.2,60.19588946420017,2024-10-08 13h18.56.376624 -0600,
8,X,1,x,7,7,0,x,1,0.4041870000073686,0.20070439999108203,0,7,7,7,164.1284741999989,,,,,,,,,,164.11730359999638,164.1284741999989,164.1284741999989,164.31166649999795,164.3281866000034,166.11570370000845,x,1,0.4041870000073686,0.20070439999108203,,000004,001,2024-10-08_13h18.36.162,cpt_test,2024.2.2,60.19588946420017,2024-10-08 13h18.56.376624 -0600,
9,X,1,x,8,8,0,None,0,,,0,8,8,8,166.12701409999863,,,,,,,,,,166.1160388999997,166.12701409999863,166.12701409999863,166.31023470000946,166.3264998000086,168.1141018000053,None,0,,,,000004,001,2024-10-08_13h18.36.162,cpt_test,2024.2.2,60.19588946420017,2024-10-08 13h18.56.376624 -0600,
10,Z,0,None,9,9,0,None,1,,,0,9,9,9,168.14245470000606,,,,,,,,,,168.1144140999968,168.14245470000606,168.14245470000606,168.30852240000968,168.34151230000134,170.1124748000002,None,1,,,,000004,001,2024-10-08_13h18.36.162,cpt_test,2024.2.2,60.19588946420017,2024-10-08 13h18.56.376624 -0600,
11,I,0,None,10,10,0,None,1,,,0,10,10,10,170.14083050000772,,,,,,,,,,170.11280329999863,170.14083050000772,170.14083050000772,170.30683060000592,170.3398262999981,172.11208310000075,None,1,,,,000004,001,2024-10-08_13h18.36.162,cpt_test,2024.2.2,60.19588946420017,2024-10-08 13h18.56.376624 -0600,
12,D,0,None,11,11,0,None,1,,,0,11,11,11,172.14319729999988,,,,,,,,,,172.11247469999944,172.14319729999988,172.14319729999988,172.30536160001066,172.35547760000918,174.10942410001007,None,1,,,,000004,001,2024-10-08_13h18.36.162,cpt_test,2024.2.2,60.19588946420017,2024-10-08 13h18.56.376624 -0600,
13,X,1,x,12,12,0,x,1,0.31390530000498984,0.19615259999409318,0,12,12,12,174.12209010000515,,,,,,,,,,174.10974610000267,174.12209010000515,174.12209010000515,174.30467379999754,174.3215365000069,176.10757210000884,x,1,0.31390530000498984,0.19615259999409318,,000004,001,2024-10-08_13h18.36.162,cpt_test,2024.2.2,60.19588946420017,2024-10-08 13h18.56.376624 -0600,
14,Y,0,None,13,13,0,None,1,,,0,13,13,13,176.1340959000081,,,,,,,,,,176.10792290000245,176.1340959000081,176.1340959000081,176.30193030000373,176.33499719999963,178.10568200000853,None,1,,,,000004,001,2024-10-08_13h18.36.162,cpt_test,2024.2.2,60.19588946420017,2024-10-08 13h18.56.376624 -0600,
15,X,1,x,14,14,0,x,1,0.3927977999992436,0.19087830001080874,0,14,14,14,178.11802840000018,,,,,,,,,,178.10599520000687,178.11802840000018,178.11802840000018,178.31803780001064,178.33289820000937,180.10433680001006,x,1,0.3927977999992436,0.19087830001080874,,000004,001,2024-10-08_13h18.36.162,cpt_test,2024.2.2,60.19588946420017,2024-10-08 13h18.56.376624 -0600,
16,X,1,x,15,15,0,x,1,0.40804160000698175,0.15813199999684002,0,15,15,15,180.11523989999841,,,,,,,,,,180.10466040000028,180.11523989999841,180.11523989999841,180.31502059999912,180.31502059999912,182.102573199998,x,1,0.40804160000698175,0.15813199999684002,,000004,001,2024-10-08_13h18.36.162,cpt_test,2024.2.2,60.19588946420017,2024-10-08 13h18.56.376624 -0600,
17,A,0,None,16,16,0,None,1,,,0,16,16,16,182.11503030000313,,,,,,,,,,182.10290209999948,182.11503030000313,182.11503030000313,182.31374350000988,182.3305407000007,184.1011462000024,None,1,,,,000004,001,2024-10-08_13h18.36.162,cpt_test,2024.2.2,60.19588946420017,2024-10-08 13h18.56.376624 -0600,
18,J,0,None,17,17,0,None,1,,,0,17,17,17,184.1309717999975,,,,,,,,,,184.10147069999948,184.1309717999975,184.1309717999975,184.3116857999994,184.34511180000845,186.11605720000807,None,1,,,,000004,001,2024-10-08_13h18.36.162,cpt_test,2024.2.2,60.19588946420017,2024-10-08 13h18.56.376624 -0600,
19,G,0,None,18,18,0,None,1,,,0,18,18,18,186.1291263000021,,,,,,,,,,186.11636929999804,186.1291263000021,186.1291263000021,186.31039080000482,186.343426300009,188.11583249999967,None,1,,,,000004,001,2024-10-08_13h18.36.162,cpt_test,2024.2.2,60.19588946420017,2024-10-08 13h18.56.376624 -0600,
20,X,1,x,19,19,0,x,1,0.31829550000838935,0.18686119999620132,0,19,19,19,188.130396499997,,,,,,,,,,188.11626290000277,188.130396499997,188.130396499997,188.30878320000193,188.34158449999813,190.11270800000057,x,1,0.31829550000838935,0.18686119999620132,,000004,001,2024-10-08_13h18.36.162,cpt_test,2024.2.2,60.19588946420017,2024-10-08 13h18.56.376624 -0600,
21,T,0,None,20,20,0,None,1,,,0,20,20,20,190.14214300000458,,,,,,,,,,190.1130428000033,190.14214300000458,190.14214300000458,190.30719760000648,190.3568088000029,192.1110733000096,None,1,,,,000004,001,2024-10-08_13h18.36.162,cpt_test,2024.2.2,60.19588946420017,2024-10-08 13h18.56.376624 -0600,
22,S,0,None,21,21,0,None,1,,,0,21,21,21,192.1425894999993,,,,,,,,,,192.11142650000693,192.1425894999993,192.1425894999993,192.3054969000077,192.35508700000355,194.1022937000089,None,1,,,,000004,001,2024-10-08_13h18.36.162,cpt_test,2024.2.2,60.19588946420017,2024-10-08 13h18.56.376624 -0600,
23,X,1,x,22,22,0,x,1,0.5113772000040626,0.15402719999838155,0,22,22,22,194.11472140000842,,,,,,,,,,194.1026004000014,194.11472140000842,194.11472140000842,194.30358610000985,194.3202883000049,196.10895979999623,x,1,0.5113772000040626,0.15402719999838155,,000004,001,2024-10-08_13h18.36.162,cpt_test,2024.2.2,60.19588946420017,2024-10-08 13h18.56.376624 -0600,
24,S,0,None,23,23,0,None,1,,,0,23,23,23,196.12360620000982,,,,,,,,,,196.10936689999653,196.12360620000982,196.12360620000982,196.3101735000091,196.3266975000006,198.10730210000474,None,1,,,,000004,001,2024-10-08_13h18.36.162,cpt_test,2024.2.2,60.19588946420017,2024-10-08 13h18.56.376624 -0600,
25,G,0,None,24,24,0,None,1,,,0,24,24,24,198.12162240000907,,,,,,,,,,198.1077057000075,198.12162240000907,198.12162240000907,198.30056020000484,198.333435499997,200.1043800000043,None,1,,,,000004,001,2024-10-08_13h18.36.162,cpt_test,2024.2.2,60.19588946420017,2024-10-08 13h18.56.376624 -0600,
26,O,0,None,25,25,0,None,1,,,0,25,25,25,200.11678880000545,,,,,,,,,,200.10468850001052,200.11678880000545,200.11678880000545,200.31561620000866,200.33168309999746,202.1035414000071,None,1,,,,000004,001,2024-10-08_13h18.36.162,cpt_test,2024.2.2,60.19588946420017,2024-10-08 13h18.56.376624 -0600,
27,P,0,None,26,26,0,None,1,,,0,26,26,26,202.11624450000818,,,,,,,,,,202.10389040000155,202.11624450000818,202.11624450000818,202.31392480000795,202.33003060000192,204.1013501999987,None,1,,,,000004,001,2024-10-08_13h18.36.162,cpt_test,2024.2.2,60.19588946420017,2024-10-08 13h18.56.376624 -0600,
28,Z,0,None,27,27,0,None,1,,,0,27,27,27,204.1138384000078,,,,,,,,,,204.10170670000662,204.1138384000078,204.1138384000078,204.3120612000057,204.3284893000091,206.1161129999964,None,1,,,,000004,001,2024-10-08_13h18.36.162,cpt_test,2024.2.2,60.19588946420017,2024-10-08 13h18.56.376624 -0600,
29,X,1,x,28,28,0,x,1,0.3629576000093948,0.17271769999933895,0,28,28,28,206.12904630000412,,,,,,,,,,206.1164362999989,206.12904630000412,206.12904630000412,206.31040319999738,206.34363410000515,208.11482410000463,x,1,0.3629576000093948,0.17271769999933895,,000004,001,2024-10-08_13h18.36.162,cpt_test,2024.2.2,60.19588946420017,2024-10-08 13h18.56.376624 -0600,
30,I,0,None,29,29,0,None,1,,,0,29,29,29,208.12757769999735,,,,,,,,,,208.11514219999663,208.12757769999735,208.12757769999735,208.3090996000101,208.34259770000062,210.11316320000333,None,1,,,,000004,001,2024-10-08_13h18.36.162,cpt_test,2024.2.2,60.19588946420017,2024-10-08 13h18.56.376624 -0600,
31,F,0,None,30,30,0,None,1,,,0,30,30,30,210.14430179999908,,,,,,,,,,210.11351439999999,210.14430179999908,210.14430179999908,210.30711619999784,210.35693490000267,212.11112690001028,None,1,,,,000004,001,2024-10-08_13h18.36.162,cpt_test,2024.2.2,60.19588946420017,2024-10-08 13h18.56.376624 -0600,
32,M,0,None,31,31,0,None,1,,,0,31,31,31,212.14319980000437,,,,,,,,,,212.11143810000794,212.14319980000437,212.14319980000437,212.30565910000587,212.35511020000558,214.10669210000196,None,1,,,,000004,001,2024-10-08_13h18.36.162,cpt_test,2024.2.2,60.19588946420017,2024-10-08 13h18.56.376624 -0600,
33,T,0,None,32,32,0,None,1,,,0,32,32,32,214.12046640001063,,,,,,,,,,214.10690539999632,214.12046640001063,214.12046640001063,214.3036304999987,214.3197247000062,216.10906280000927,None,1,,,,000004,001,2024-10-08_13h18.36.162,cpt_test,2024.2.2,60.19588946420017,2024-10-08 13h18.56.376624 -0600,
34,A,0,None,33,33,0,None,1,,,0,33,33,33,216.1219861999998,,,,,,,,,,216.10937600000761,216.1219861999998,216.1219861999998,216.302230900008,216.3350705000048,218.10665339999832,None,1,,,,000004,001,2024-10-08_13h18.36.162,cpt_test,2024.2.2,60.19588946420017,2024-10-08 13h18.56.376624 -0600,
35,E,0,None,34,34,0,None,1,,,0,34,34,34,218.1343188000028,,,,,,,,,,218.1069659000059,218.1343188000028,218.1343188000028,218.3007212000084,218.33381660000305,220.10431550000794,None,1,,,,000004,001,2024-10-08_13h18.36.162,cpt_test,2024.2.2,60.19588946420017,2024-10-08 13h18.56.376624 -0600,
36,X,1,x,35,35,0,x,1,0.36735410000255797,0.1687419000081718,0,35,35,35,220.11675190000096,,,,,,,,,,220.10462130000815,220.11675190000096,220.11675190000096,220.31569640000816,220.33215010000276,222.10316800000146,x,1,0.36735410000255797,0.1687419000081718,,000004,001,2024-10-08_13h18.36.162,cpt_test,2024.2.2,60.19588946420017,2024-10-08 13h18.56.376624 -0600,
37,A,0,None,36,36,0,None,1,,,0,36,36,36,222.1156931000005,,,,,,,,,,222.10351120000996,222.1156931000005,222.1156931000005,222.3138983000099,222.33043200000247,224.10144939999736,None,1,,,,000004,001,2024-10-08_13h18.36.162,cpt_test,2024.2.2,60.19588946420017,2024-10-08 13h18.56.376624 -0600,
38,S,0,None,37,37,0,None,1,,,0,37,37,37,224.11392190000333,,,,,,,,,,224.1017581000051,224.11392190000333,224.11392190000333,224.3125230000005,224.32864740000514,226.1177752000076,None,1,,,,000004,001,2024-10-08_13h18.36.162,cpt_test,2024.2.2,60.19588946420017,2024-10-08 13h18.56.376624 -0600,
39,U,0,None,38,38,0,None,1,,,0,38,38,38,226.15139179999824,,,,,,,,,,226.1181598999974,226.15139179999824,226.15139179999824,226.30162270000437,226.36157540000568,228.11220879999746,None,1,,,228.1084062000009,000004,001,2024-10-08_13h18.36.162,cpt_test,2024.2.2,60.19588946420017,2024-10-08 13h18.56.376624 -0600,
40,U,0,None,39,39,0,None,1,,,0,39,39,39,228.12546380001004,,,,,,,,,,228.11247330000333,228.12546380001004,228.12546380001004,228.30883650000033,228.3274567000044,230.11310600000434,None,1,,,,000004,001,2024-10-08_13h18.36.162,cpt_test,2024.2.2,60.19588946420017,2024-10-08 13h18.56.376624 -0600,
41,Q,0,None,40,40,0,None,1,,,0,40,40,40,230.1446952999977,,,,,,,,,,230.113419900008,230.1446952999977,230.1446952999977,230.30929849999666,230.35703230000217,232.1040631000069,None,1,,,,000004,001,2024-10-08_13h18.36.162,cpt_test,2024.2.2,60.19588946420017,2024-10-08 13h18.56.376624 -0600,
42,E,0,None,41,41,0,None,1,,,0,41,41,41,232.11520369999926,,,,,,,,,,232.10433339999872,232.11520369999926,232.11520369999926,232.30603400000837,232.32259989999875,234.1099022999988,None,1,,,,000004,001,2024-10-08_13h18.36.162,cpt_test,2024.2.2,60.19588946420017,2024-10-08 13h18.56.376624 -0600,
43,B,0,None,42,42,0,None,1,,,0,42,42,42,234.13997910000035,,,,,,,,,,234.1102314000018,234.13997910000035,234.13997910000035,234.30406300000323,234.35374890000094,236.10827389999758,None,1,,,,000004,001,2024-10-08_13h18.36.162,cpt_test,2024.2.2,60.19588946420017,2024-10-08 13h18.56.376624 -0600,
44,O,0,None,43,43,0,None,1,,,0,43,43,43,236.12122860000818,,,,,,,,,,236.1086353999999,236.12122860000818,236.12122860000818,236.3026988000056,236.33542640000815,238.10758409999835,None,1,,,,000004,001,2024-10-08_13h18.36.162,cpt_test,2024.2.2,60.19588946420017,2024-10-08 13h18.56.376624 -0600,
45,E,0,None,44,44,0,None,1,,,0,44,44,44,238.12200840000878,,,,,,,,,,238.10797450000246,238.12200840000878,238.12200840000878,238.31055340000603,238.32698290000553,240.10502380000253,None,1,,,,000004,001,2024-10-08_13h18.36.162,cpt_test,2024.2.2,60.19588946420017,2024-10-08 13h18.56.376624 -0600,
46,F,0,None,45,45,0,None,1,,,0,45,45,45,240.11761250000563,,,,,,,,,,240.1053377000062,240.11761250000563,240.11761250000563,240.31595650000963,240.33212439999625,242.10307589999866,None,1,,,,000004,001,2024-10-08_13h18.36.162,cpt_test,2024.2.2,60.19588946420017,2024-10-08 13h18.56.376624 -0600,
47,V,0,None,46,46,0,None,1,,,0,46,46,46,242.13185770000564,,,,,,,,,,242.103400100008,242.13185770000564,242.13185770000564,242.31423930000165,242.3304463000095,244.10179990000324,None,1,,,,000004,001,2024-10-08_13h18.36.162,cpt_test,2024.2.2,60.19588946420017,2024-10-08 13h18.56.376624 -0600,
48,X,1,x,47,47,0,x,1,0.42621010000584647,0.20582869999634568,0,47,47,47,244.1143133000005,,,,,,,,,,244.1021122000093,244.1143133000005,244.1143133000005,244.31262419999985,244.32877809999627,246.11800040000526,x,1,0.42621010000584647,0.20582869999634568,,000004,001,2024-10-08_13h18.36.162,cpt_test,2024.2.2,60.19588946420017,2024-10-08 13h18.56.376624 -0600,
49,X,1,x,48,48,0,x,1,0.4672903999889968,0.20229760000074748,0,48,48,48,246.12748660000216,,,,,,,,,,246.11839879999752,246.12748660000216,246.12748660000216,246.31092350000108,246.32745350000914,248.1162631000043,x,1,0.4672903999889968,0.20229760000074748,,000004,001,2024-10-08_13h18.36.162,cpt_test,2024.2.2,60.19588946420017,2024-10-08 13h18.56.376624 -0600,
50,C,0,None,49,49,0,None,1,,,0,49,49,49,248.14687370001047,,,,,,,,,,248.11666349999723,248.14687370001047,248.14687370001047,248.30938730000344,248.35880899999756,250.113108000005,None,1,,,,000004,001,2024-10-08_13h18.36.162,cpt_test,2024.2.2,60.19588946420017,2024-10-08 13h18.56.376624 -0600,
51,M,0,None,50,50,0,None,1,,,0,50,50,50,250.12625450000633,,,,,,,,,,250.1134291000053,250.12625450000633,250.12625450000633,250.30875209999795,250.32523129999754,252.1113461000059,None,1,,,,000004,001,2024-10-08_13h18.36.162,cpt_test,2024.2.2,60.19588946420017,2024-10-08 13h18.56.376624 -0600,
52,D,0,None,51,51,0,None,1,,,0,51,51,51,252.124149700001,,,,,,,,,,252.11169420000806,252.124149700001,252.124149700001,252.30674610000278,252.323578800002,254.10990130000573,None,1,,,,000004,001,2024-10-08_13h18.36.162,cpt_test,2024.2.2,60.19588946420017,2024-10-08 13h18.56.376624 -0600,
53,X,1,x,52,52,0,x,1,0.4393207999964943,0.1818323000043165,0,52,52,52,254.12263260000327,,,,,,,,,,254.1102186000062,254.12263260000327,254.12263260000327,254.30429650000588,254.3373377000098,256.1081368000014,x,1,0.4393207999964943,0.1818323000043165,,000004,001,2024-10-08_13h18.36.162,cpt_test,2024.2.2,60.19588946420017,2024-10-08 13h18.56.376624 -0600,
54,K,0,None,53,53,0,None,1,,,0,53,53,53,256.1377257999993,,,,,,,,,,256.1084605000069,256.1377257999993,256.1377257999993,256.30257770000026,256.3521940000064,258.1054237000062,None,1,,,,000004,001,2024-10-08_13h18.36.162,cpt_test,2024.2.2,60.19588946420017,2024-10-08 13h18.56.376624 -0600,
55,X,1,x,54,54,0,x,1,0.32995840000512544,0.20367600000463426,0,54,54,54,258.1188439000107,,,,,,,,,,258.10577960000955,258.1188439000107,258.1188439000107,258.3139632000093,258.3303261999972,260.1047421999974,x,1,0.32995840000512544,0.20367600000463426,,000004,001,2024-10-08_13h18.36.162,cpt_test,2024.2.2,60.19588946420017,2024-10-08 13h18.56.376624 -0600,
56,N,0,None,55,55,0,None,1,,,0,55,55,55,260.1360926000052,,,,,,,,,,260.1050694000005,260.1360926000052,260.1360926000052,260.31609110000136,260.3490477000014,262.10449480000534,None,1,,,,000004,001,2024-10-08_13h18.36.162,cpt_test,2024.2.2,60.19588946420017,2024-10-08 13h18.56.376624 -0600,
57,M,0,None,56,56,0,None,1,,,0,56,56,56,262.1186812000087,,,,,,,,,,262.10487720000674,262.1186812000087,262.1186812000087,262.3143670999998,262.3307222000003,264.1043884999963,None,1,,,,000004,001,2024-10-08_13h18.36.162,cpt_test,2024.2.2,60.19588946420017,2024-10-08 13h18.56.376624 -0600,
58,X,1,x,57,57,0,x,1,0.32703359999868553,0.1623779000074137,0,57,57,57,264.1184796000016,,,,,,,,,,264.10478920000605,264.1184796000016,264.1184796000016,264.31264530000044,264.32909780000045,266.10170579999976,x,1,0.32703359999868553,0.1623779000074137,,000004,001,2024-10-08_13h18.36.162,cpt_test,2024.2.2,60.19588946420017,2024-10-08 13h18.56.376624 -0600,
59,F,0,None,58,58,0,None,1,,,0,58,58,58,266.1164783999993,,,,,,,,,,266.10211459999846,266.1164783999993,266.1164783999993,266.3109595999995,266.3274548000045,268.1179265999963,None,1,,,,000004,001,2024-10-08_13h18.36.162,cpt_test,2024.2.2,60.19588946420017,2024-10-08 13h18.56.376624 -0600,
60,A,0,None,59,59,0,None,1,,,0,59,59,59,268.13191510000615,,,,,,,,,,268.11836980000953,268.13191510000615,268.13191510000615,268.29878710000776,268.3438523000077,270.11611149999953,None,1,,,270.1075903000019,000004,001,2024-10-08_13h18.36.162,cpt_test,2024.2.2,60.19588946420017,2024-10-08 13h18.56.376624 -0600,
61,X,1,x,60,60,0,x,1,0.3758888000011211,0.16237259999616072,0,60,60,60,270.1301392000023,,,,,,,,,,270.1165153000038,270.1301392000023,270.1301392000023,270.3077013000002,270.34070780000184,272.11205550000886,x,1,0.3758888000011211,0.16237259999616072,,000004,001,2024-10-08_13h18.36.162,cpt_test,2024.2.2,60.19588946420017,2024-10-08 13h18.56.376624 -0600,
62,V,0,None,61,61,0,None,1,,,0,61,61,61,272.1249588000064,,,,,,,,,,272.11236830000416,272.1249588000064,272.1249588000064,272.30625470000086,272.33921410000767,274.11009770000237,None,1,,,,000004,001,2024-10-08_13h18.36.162,cpt_test,2024.2.2,60.19588946420017,2024-10-08 13h18.56.376624 -0600,
63,U,0,None,62,62,0,None,1,,,0,62,62,62,274.1245798000018,,,,,,,,,,274.1104001000058,274.1245798000018,274.1245798000018,274.3046489999979,274.33735929999966,276.1090350000013,None,1,,,,000004,001,2024-10-08_13h18.36.162,cpt_test,2024.2.2,60.19588946420017,2024-10-08 13h18.56.376624 -0600,
64,M,0,None,63,63,0,None,1,,,0,63,63,63,276.1224855000037,,,,,,,,,,276.10937030000787,276.1224855000037,276.1224855000037,276.3031086999981,276.3356444000092,278.10683509999944,None,1,,,,000004,001,2024-10-08_13h18.36.162,cpt_test,2024.2.2,60.19588946420017,2024-10-08 13h18.56.376624 -0600,
65,X,1,x,64,64,0,x,1,0.3727206000039587,0.17571419999876525,0,64,64,64,278.1200331,,,,,,,,,,278.1071430000011,278.1200331,278.1200331,278.3012302999996,278.3342830000038,280.1051957000018,x,1,0.3727206000039587,0.17571419999876525,,000004,001,2024-10-08_13h18.36.162,cpt_test,2024.2.2,60.19588946420017,2024-10-08 13h18.56.376624 -0600,
66,A,0,None,65,65,0,None,1,,,0,65,65,65,280.1180105000094,,,,,,,,,,280.10551520000445,280.1180105000094,280.1180105000094,280.31712069999776,280.33363090000057,282.1063526000071,None,1,,,,000004,001,2024-10-08_13h18.36.162,cpt_test,2024.2.2,60.19588946420017,2024-10-08 13h18.56.376624 -0600,
67,N,0,None,66,66,0,None,1,,,0,66,66,66,282.1216628999973,,,,,,,,,,282.1067880000046,282.1216628999973,282.1216628999973,282.31463449999865,282.330932900004,284.10307090000424,None,1,,,,000004,001,2024-10-08_13h18.36.162,cpt_test,2024.2.2,60.19588946420017,2024-10-08 13h18.56.376624 -0600,
68,H,0,None,67,67,0,None,1,,,0,67,67,67,284.13282980000076,,,,,,,,,,284.1034598999977,284.13282980000076,284.13282980000076,284.3129906999966,284.34588839999924,286.1169780000055,None,1,,,,000004,001,2024-10-08_13h18.36.162,cpt_test,2024.2.2,60.19588946420017,2024-10-08 13h18.56.376624 -0600,
69,A,0,None,68,68,0,None,1,,,0,68,68,68,286.1299602000072,,,,,,,,,,286.1172796000028,286.1299602000072,286.1299602000072,286.31148270000995,286.34435739999753,288.1154804999969,None,1,,,,000004,001,2024-10-08_13h18.36.162,cpt_test,2024.2.2,60.19588946420017,2024-10-08 13h18.56.376624 -0600,
70,X,1,x,69,69,0,x,1,0.3128234000032535,0.168644299992593,0,69,69,69,288.1289991000085,,,,,,,,,,288.1157896000077,288.1289991000085,288.1289991000085,288.30952680000337,288.34276749999844,290.1141285000049,x,1,0.3128234000032535,0.168644299992593,,000004,001,2024-10-08_13h18.36.162,cpt_test,2024.2.2,60.19588946420017,2024-10-08 13h18.56.376624 -0600,
71,F,0,None,70,70,0,None,1,,,0,70,70,70,290.12690070000826,,,,,,,,,,290.11444309999933,290.12690070000826,290.12690070000826,290.3078746999963,290.34107850000146,292.1121226000105,None,1,,,,000004,001,2024-10-08_13h18.36.162,cpt_test,2024.2.2,60.19588946420017,2024-10-08 13h18.56.376624 -0600,
72,N,0,None,71,71,0,None,1,,,0,71,71,71,292.12475610000547,,,,,,,,,,292.11242600000696,292.12475610000547,292.12475610000547,292.30647120000503,292.33928610000294,294.1104980000091,None,1,,,,000004,001,2024-10-08_13h18.36.162,cpt_test,2024.2.2,60.19588946420017,2024-10-08 13h18.56.376624 -0600,
73,K,0,None,72,72,0,None,1,,,0,72,72,72,294.1232786000037,,,,,,,,,,294.11087479999696,294.1232786000037,294.1232786000037,294.3046084000089,294.3376493000105,296.1087172999978,None,1,,,,000004,001,2024-10-08_13h18.36.162,cpt_test,2024.2.2,60.19588946420017,2024-10-08 13h18.56.376624 -0600,
74,Y,0,None,73,73,0,None,1,,,0,73,73,73,296.1214117000054,,,,,,,,,,296.1090351000021,296.1214117000054,296.1214117000054,296.30313600000227,296.33596430000034,298.10927070000616,None,1,,,,000004,001,2024-10-08_13h18.36.162,cpt_test,2024.2.2,60.19588946420017,2024-10-08 13h18.56.376624 -0600,
75,Y,0,None,74,74,0,x,0,0.30408849999366794,0.1634760000015376,0,74,74,74,298.1187637999974,,,,,,,,,,298.1096541000006,298.1187637999974,298.1187637999974,298.30501060000097,298.3214854999969,300.1066798999964,x,0,0.30408849999366794,0.1634760000015376,,000004,001,2024-10-08_13h18.36.162,cpt_test,2024.2.2,60.19588946420017,2024-10-08 13h18.56.376624 -0600,
76,R,0,None,75,75,0,None,1,,,0,75,75,75,300.12108740000986,,,,,,,,,,300.1070869000105,300.12108740000986,300.12108740000986,300.3076671000017,300.3242398000002,302.10373050000635,None,1,,,,000004,001,2024-10-08_13h18.36.162,cpt_test,2024.2.2,60.19588946420017,2024-10-08 13h18.56.376624 -0600,
77,X,1,x,76,76,0,x,1,0.45603999999002554,0.17762370000127703,0,76,76,76,302.1165467999963,,,,,,,,,,302.10403410000436,302.1165467999963,302.1165467999963,302.31532999999763,302.3323969000048,304.1021790000086,x,1,0.45603999999002554,0.17762370000127703,,000004,001,2024-10-08_13h18.36.162,cpt_test,2024.2.2,60.19588946420017,2024-10-08 13h18.56.376624 -0600,
78,R,0,None,77,77,0,None,1,,,0,77,77,77,304.11519789999875,,,,,,,,,,304.1025013000035,304.11519789999875,304.11519789999875,304.3131301000103,304.32936669999617,306.11698800000886,None,1,,,,000004,001,2024-10-08_13h18.36.162,cpt_test,2024.2.2,60.19588946420017,2024-10-08 13h18.56.376624 -0600,
79,F,0,None,78,78,0,None,1,,,0,78,78,78,306.1281913999992,,,,,,,,,,306.1171721999999,306.1281913999992,306.1281913999992,306.3113910000102,306.32770380000875,308.1155704999983,None,1,,,,000004,001,2024-10-08_13h18.36.162,cpt_test,2024.2.2,60.19588946420017,2024-10-08 13h18.56.376624 -0600,
80,K,0,None,79,79,0,None,1,,,0,79,79,79,308.1280739000067,,,,,,,,,,308.1158790000045,308.1280739000067,308.1280739000067,308.30999940000765,308.34266970001045,310.115684400007,None,1,,,,000004,001,2024-10-08_13h18.36.162,cpt_test,2024.2.2,60.19588946420017,2024-10-08 13h18.56.376624 -0600,
81,O,0,None,80,80,0,None,1,,,0,80,80,80,310.13023840000096,,,,,,,,,,310.11606980000215,310.13023840000096,310.13023840000096,310.30821590000414,310.3410913999978,312.11236110000755,None,1,,,,000004,001,2024-10-08_13h18.36.162,cpt_test,2024.2.2,60.19588946420017,2024-10-08 13h18.56.376624 -0600,
82,F,0,None,81,81,0,None,1,,,0,81,81,81,312.1255181000015,,,,,,,,,,312.1126828999986,312.1255181000015,312.1255181000015,312.30663240001013,312.3394127000065,314.1107594000059,None,1,,,,000004,001,2024-10-08_13h18.36.162,cpt_test,2024.2.2,60.19588946420017,2024-10-08 13h18.56.376624 -0600,
83,F,0,None,82,82,0,None,1,,,0,82,82,82,314.1202013000002,,,,,,,,,,314.11118780000834,314.1202013000002,314.1202013000002,314.30480979999993,314.3213417000079,316.1089372999995,None,1,,,,000004,001,2024-10-08_13h18.36.162,cpt_test,2024.2.2,60.19588946420017,2024-10-08 13h18.56.376624 -0600,
84,W,0,None,83,83,0,None,1,,,0,83,83,83,316.14264900000126,,,,,,,,,,316.1092503999971,316.14264900000126,316.14264900000126,316.3103520000004,316.3386857000005,318.107265300001,None,1,,,,000004,001,2024-10-08_13h18.36.162,cpt_test,2024.2.2,60.19588946420017,2024-10-08 13h18.56.376624 -0600,
85,X,1,x,84,84,0,x,1,0.495462500010035,0.18176500000117812,0,84,84,84,318.12022830000205,,,,,,,,,,318.1075678000052,318.12022830000205,318.12022830000205,318.30152700000326,318.33454280000296,320.1067138000071,x,1,0.495462500010035,0.18176500000117812,,000004,001,2024-10-08_13h18.36.162,cpt_test,2024.2.2,60.19588946420017,2024-10-08 13h18.56.376624 -0600,
86,J,0,None,85,85,0,None,1,,,0,85,85,85,320.1212658000004,,,,,,,,,,320.107124400005,320.1212658000004,320.1212658000004,320.30883039999753,320.3252208000049,322.1037820000056,None,1,,,,000004,001,2024-10-08_13h18.36.162,cpt_test,2024.2.2,60.19588946420017,2024-10-08 13h18.56.376624 -0600,
87,N,0,None,86,86,0,None,1,,,0,86,86,86,322.1161964000057,,,,,,,,,,322.1040811999992,322.1161964000057,322.1161964000057,322.3150861000031,322.3311657000013,324.1022066000005,None,1,,,,000004,001,2024-10-08_13h18.36.162,cpt_test,2024.2.2,60.19588946420017,2024-10-08 13h18.56.376624 -0600,
88,X,1,x,87,87,0,x,1,0.42714869999326766,0.1727969000057783,0,87,87,87,324.1145516000106,,,,,,,,,,324.1025115000084,324.1145516000106,324.1145516000106,324.31322250000085,324.3296849000035,326.11280980000447,x,1,0.42714869999326766,0.1727969000057783,,000004,001,2024-10-08_13h18.36.162,cpt_test,2024.2.2,60.19588946420017,2024-10-08 13h18.56.376624 -0600,
89,T,0,None,88,88,0,None,1,,,0,88,88,88,326.1262917999993,,,,,,,,,,326.11322729999665,326.1262917999993,326.1262917999993,326.31165570000303,326.328164999999,328.1172881000093,None,1,,,,000004,001,2024-10-08_13h18.36.162,cpt_test,2024.2.2,60.19588946420017,2024-10-08 13h18.56.376624 -0600,
90,I,0,None,89,89,0,None,1,,,0,89,89,89,328.1318033999996,,,,,,,,,,328.1176961000019,328.1318033999996,328.1318033999996,328.3097409000038,328.34301720000803,330.1143061000039,None,1,,,,000004,001,2024-10-08_13h18.36.162,cpt_test,2024.2.2,60.19588946420017,2024-10-08 13h18.56.376624 -0600,
91,P,0,None,90,90,0,None,1,,,0,90,90,90,330.12725260001025,,,,,,,,,,330.114605499999,330.12725260001025,330.12725260001025,330.308532199997,330.34146340000734,332.1149609999993,None,1,,,332.10737340000924,000004,001,2024-10-08_13h18.36.162,cpt_test,2024.2.2,60.19588946420017,2024-10-08 13h18.56.376624 -0600,
92,X,1,x,91,91,0,x,1,0.4104751999984728,0.19085880000784528,0,91,91,91,332.12813100000494,,,,,,,,,,332.1153670000058,332.12813100000494,332.12813100000494,332.30761180000263,332.34121310000774,334.11099610000383,x,1,0.4104751999984728,0.19085880000784528,,000004,001,2024-10-08_13h18.36.162,cpt_test,2024.2.2,60.19588946420017,2024-10-08 13h18.56.376624 -0600,
93,B,0,None,92,92,0,None,1,,,0,92,92,92,334.1243517999974,,,,,,,,,,334.11136370000895,334.1243517999974,334.1243517999974,334.3051884000015,334.33817260000797,336.1093747999985,None,1,,,,000004,001,2024-10-08_13h18.36.162,cpt_test,2024.2.2,60.19588946420017,2024-10-08 13h18.56.376624 -0600,
94,M,0,None,93,93,0,None,1,,,0,93,93,93,336.1237131000089,,,,,,,,,,336.10969759999716,336.1237131000089,336.1237131000089,336.3035343000083,336.33647570000903,338.10852460000024,None,1,,,,000004,001,2024-10-08_13h18.36.162,cpt_test,2024.2.2,60.19588946420017,2024-10-08 13h18.56.376624 -0600,
95,B,0,None,94,94,0,None,1,,,0,94,94,94,338.123740199997,,,,,,,,,,338.10897240000486,338.123740199997,338.123740199997,338.3017610000097,338.3349545000092,340.10605680001026,None,1,,,,000004,001,2024-10-08_13h18.36.162,cpt_test,2024.2.2,60.19588946420017,2024-10-08 13h18.56.376624 -0600,
96,I,0,None,95,95,0,None,1,,,0,95,95,95,340.1189646999992,,,,,,,,,,340.1063887000055,340.1189646999992,340.1189646999992,340.3167459000106,340.33312550000846,342.10413049999624,None,1,,,,000004,001,2024-10-08_13h18.36.162,cpt_test,2024.2.2,60.19588946420017,2024-10-08 13h18.56.376624 -0600,
97,X,1,x,96,96,0,x,1,0.469635899993591,0.1494453000050271,0,96,96,96,342.11716730000626,,,,,,,,,,342.104439200004,342.11716730000626,342.11716730000626,342.31509319999896,342.3315792000067,344.10231580000254,x,1,0.469635899993591,0.1494453000050271,,000004,001,2024-10-08_13h18.36.162,cpt_test,2024.2.2,60.19588946420017,2024-10-08 13h18.56.376624 -0600,
98,J,0,None,97,97,0,None,1,,,0,97,97,97,344.11519530000805,,,,,,,,,,344.1026400999981,344.11519530000805,344.11519530000805,344.31346940000367,344.32972609999706,346.11745930000325,None,1,,,,000004,001,2024-10-08_13h18.36.162,cpt_test,2024.2.2,60.19588946420017,2024-10-08 13h18.56.376624 -0600,
99,X,1,x,98,98,0,x,1,0.4453905999980634,0.15948780000326224,0,98,98,98,346.1307089000038,,,,,,,,,,346.1177621000097,346.1307089000038,346.1307089000038,346.3118763000093,346.3449688999972,348.1159898000042,x,1,0.4453905999980634,0.15948780000326224,,000004,001,2024-10-08_13h18.36.162,cpt_test,2024.2.2,60.19588946420017,2024-10-08 13h18.56.376624 -0600,
100,U,0,None,99,99,0,None,1,,,0,99,99,99,348.1287222999963,,,,,,,,,,348.1163202000025,348.1287222999963,348.1287222999963,348.3100887000037,348.3432753000088,350.11441190000915,None,1,,,,000004,001,2024-10-08_13h18.36.162,cpt_test,2024.2.2,60.19588946420017,2024-10-08 13h18.56.376624 -0600,
101,D,0,None,100,100,0,None,1,,,0,100,100,100,350.12696130000404,,,,,,,,,,350.11472250000224,350.12696130000404,350.12696130000404,350.30893220000144,350.3418168000062,352.1123784000083,None,1,,,,000004,001,2024-10-08_13h18.36.162,cpt_test,2024.2.2,60.19588946420017,2024-10-08 13h18.56.376624 -0600,
102,X,1,x,101,101,0,x,1,0.43307430000277236,0.1580338999920059,0,101,101,101,352.12490049999906,,,,,,,,,,352.1126627000049,352.12490049999906,352.12490049999906,352.31549670000095,352.332513500005,354.1114820000075,x,1,0.43307430000277236,0.1580338999920059,,000004,001,2024-10-08_13h18.36.162,cpt_test,2024.2.2,60.19588946420017,2024-10-08 13h18.56.376624 -0600,
103,X,1,x,102,102,0,x,1,0.5341330999945058,0.15810800000326708,0,102,102,102,354.1221329999971,,,,,,,,,,354.11197480000556,354.1221329999971,354.1221329999971,354.3051936999982,354.3216573999962,356.1090966000047,x,1,0.5341330999945058,0.15810800000326708,,000004,001,2024-10-08_13h18.36.162,cpt_test,2024.2.2,60.19588946420017,2024-10-08 13h18.56.376624 -0600,
104,N,0,None,103,103,0,None,1,,,0,103,103,103,356.12205740000354,,,,,,,,,,356.1094324000005,356.12205740000354,356.12205740000354,356.30352159999893,356.3367838999984,358.10738149999816,None,1,,,,000004,001,2024-10-08_13h18.36.162,cpt_test,2024.2.2,60.19588946420017,2024-10-08 13h18.56.376624 -0600,
105,U,0,None,104,104,0,None,1,,,0,104,104,104,358.1206235999998,,,,,,,,,,358.10769970000547,358.1206235999998,358.1206235999998,358.30215970000427,358.3349736000091,360.1060693000036,None,1,,,,000004,001,2024-10-08_13h18.36.162,cpt_test,2024.2.2,60.19588946420017,2024-10-08 13h18.56.376624 -0600,
106,T,0,None,105,105,0,None,1,,,0,105,105,105,360.1189962000062,,,,,,,,,,360.1063855000102,360.1189962000062,360.1189962000062,360.3002046000038,360.33333239999774,362.1041117999994,None,1,,,,000004,001,2024-10-08_13h18.36.162,cpt_test,2024.2.2,60.19588946420017,2024-10-08 13h18.56.376624 -0600,
107,W,0,None,106,106,0,None,1,,,0,106,106,106,362.11725870000373,,,,,,,,,,362.10443980000855,362.11725870000373,362.11725870000373,362.31546260000323,362.3317214999988,364.1031231000088,None,1,,,,000004,001,2024-10-08_13h18.36.162,cpt_test,2024.2.2,60.19588946420017,2024-10-08 13h18.56.376624 -0600,
108,N,0,None,107,107,0,None,1,,,0,107,107,107,364.11437009999645,,,,,,,,,,364.1033400000015,364.11437009999645,364.11437009999645,364.3133891000034,364.3300600000075,366.1012297999987,None,1,,,,000004,001,2024-10-08_13h18.36.162,cpt_test,2024.2.2,60.19588946420017,2024-10-08 13h18.56.376624 -0600,
109,R,0,None,108,108,0,None,1,,,0,108,108,108,366.1152298000088,,,,,,,,,,366.10155459999805,366.1152298000088,366.1152298000088,366.3120609000034,366.3285310000065,368.11552720000327,None,1,,,,000004,001,2024-10-08_13h18.36.162,cpt_test,2024.2.2,60.19588946420017,2024-10-08 13h18.56.376624 -0600,
110,X,1,x,109,109,0,x,1,0.39195990000735037,0.176886100001866,0,109,109,109,368.1268751000025,,,,,,,,,,368.1156863000069,368.1268751000025,368.1268751000025,368.3101194000046,368.32652050000615,370.1129781000054,x,1,0.39195990000735037,0.176886100001866,,000004,001,2024-10-08_13h18.36.162,cpt_test,2024.2.2,60.19588946420017,2024-10-08 13h18.56.376624 -0600,
111,A,0,None,110,110,0,None,1,,,0,110,110,110,370.125956200005,,,,,,,,,,370.1132923999976,370.125956200005,370.125956200005,370.30845789999876,370.32474009999714,372.1129998000106,None,1,,,,000004,001,2024-10-08_13h18.36.162,cpt_test,2024.2.2,60.19588946420017,2024-10-08 13h18.56.376624 -0600,
112,X,1,x,111,111,0,x,1,0.47439489999669604,0.1640670000051614,0,111,111,111,372.12601210000867,,,,,,,,,,372.1133142000035,372.12601210000867,372.12601210000867,372.3070047000074,372.3401911999972,374.1109557000018,x,1,0.47439489999669604,0.1640670000051614,,000004,001,2024-10-08_13h18.36.162,cpt_test,2024.2.2,60.19588946420017,2024-10-08 13h18.56.376624 -0600,
113,G,0,None,112,112,0,None,1,,,0,112,112,112,374.1241333000071,,,,,,,,,,374.1113256000099,374.1241333000071,374.1241333000071,374.3056432000012,374.3384197999985,376.11081019999983,None,1,,,,000004,001,2024-10-08_13h18.36.162,cpt_test,2024.2.2,60.19588946420017,2024-10-08 13h18.56.376624 -0600,
114,O,0,None,113,113,0,None,1,,,0,113,113,113,376.12536250000994,,,,,,,,,,376.1112859999994,376.12536250000994,376.12536250000994,376.30375300000014,376.3369901999977,378.10733159999654,None,1,,,,000004,001,2024-10-08_13h18.36.162,cpt_test,2024.2.2,60.19588946420017,2024-10-08 13h18.56.376624 -0600,
115,U,0,None,114,114,0,None,1,,,0,114,114,114,378.12010430000373,,,,,,,,,,378.10763650000445,378.12010430000373,378.12010430000373,378.3019326000067,378.3349142000079,380.1056946000026,None,1,,,,000004,001,2024-10-08_13h18.36.162,cpt_test,2024.2.2,60.19588946420017,2024-10-08 13h18.56.376624 -0600,
116,X,1,x,115,115,0,x,1,0.4765973000030499,0.1623154999979306,0,115,115,115,380.1184368000104,,,,,,,,,,380.10600250000425,380.1184368000104,380.1184368000104,380.3002134999988,380.33330870000646,382.1040814000007,x,1,0.4765973000030499,0.1623154999979306,,000004,001,2024-10-08_13h18.36.162,cpt_test,2024.2.2,60.19588946420017,2024-10-08 13h18.56.376624 -0600,
117,X,1,x,116,116,0,x,1,0.40952780000225175,0.16807790000166278,0,116,116,116,382.1156748000067,,,,,,,,,,382.10446650000813,382.1156748000067,382.1156748000067,382.31509299999743,382.31509299999743,384.10241649999807,x,1,0.40952780000225175,0.16807790000166278,,000004,001,2024-10-08_13h18.36.162,cpt_test,2024.2.2,60.19588946420017,2024-10-08 13h18.56.376624 -0600,
118,C,0,None,117,117,0,None,1,,,0,117,117,117,384.1155999000039,,,,,,,,,,384.1027322000009,384.1155999000039,384.1155999000039,384.3137057999993,384.33010400000785,386.11783030000515,None,1,,,,000004,001,2024-10-08_13h18.36.162,cpt_test,2024.2.2,60.19588946420017,2024-10-08 13h18.56.376624 -0600,
119,A,0,None,118,118,0,None,1,,,0,118,118,118,386.13020510000933,,,,,,,,,,386.1181307000079,386.13020510000933,386.13020510000933,386.312199100008,386.34513190000143,388.116809500003,None,1,,,,000004,001,2024-10-08_13h18.36.162,cpt_test,2024.2.2,60.19588946420017,2024-10-08 13h18.56.376624 -0600,
120,X,1,x,119,119,0,x,1,0.37058729999989737,0.1501875999965705,0,119,119,119,388.1303726000042,,,,,,,,,,388.11711430001014,388.1303726000042,388.1303726000042,388.31068770001,388.3435538000049,390.1115884000028,x,1,0.37058729999989737,0.1501875999965705,,000004,001,2024-10-08_13h18.36.162,cpt_test,2024.2.2,60.19588946420017,2024-10-08 13h18.56.376624 -0600,
121,H,0,None,120,120,0,None,1,,,0,120,120,120,390.1290638000064,,,,,,,,,,390.1121569000097,390.1290638000064,390.1290638000064,390.3028898000048,390.3326725000079,392.1129596000101,None,1,,,392.1070411999972,000004,001,2024-10-08_13h18.36.162,cpt_test,2024.2.2,60.19588946420017,2024-10-08 13h18.56.376624 -0600,
122,M,0,None,121,121,0,None,1,,,0,121,121,121,392.12557370000286,,,,,,,,,,392.11325670000224,392.12557370000286,392.12557370000286,392.30722790000436,392.34042160000536,394.1114455000061,None,1,,,,000004,001,2024-10-08_13h18.36.162,cpt_test,2024.2.2,60.19588946420017,2024-10-08 13h18.56.376624 -0600,
123,V,0,None,122,122,0,None,1,,,0,122,122,122,394.1249158999999,,,,,,,,,,394.1118371000048,394.1249158999999,394.1249158999999,394.3057658000034,394.3385500000004,396.1127059999999,None,1,,,,000004,001,2024-10-08_13h18.36.162,cpt_test,2024.2.2,60.19588946420017,2024-10-08 13h18.56.376624 -0600,
124,K,0,None,123,123,0,None,1,,,0,123,123,123,396.12657410000975,,,,,,,,,,396.1131510999985,396.12657410000975,396.12657410000975,396.30399320001015,396.3369204000046,398.1094485000067,None,1,,,,000004,001,2024-10-08_13h18.36.162,cpt_test,2024.2.2,60.19588946420017,2024-10-08 13h18.56.376624 -0600,
125,G,0,None,124,124,0,None,1,,,0,124,124,124,398.12417950000963,,,,,,,,,,398.10982800000056,398.12417950000963,398.12417950000963,398.3024122000061,398.33552550000604,400.1123957000091,None,1,,,400.106013800003,000004,001,2024-10-08_13h18.36.162,cpt_test,2024.2.2,60.19588946420017,2024-10-08 13h18.56.376624 -0600,
126,A,0,None,125,125,0,None,1,,,0,125,125,125,400.12560700000904,,,,,,,,,,400.11270559999684,400.12560700000904,400.12560700000904,400.3007462000096,400.3337067000102,402.1048387000046,None,1,,,,000004,001,2024-10-08_13h18.36.162,cpt_test,2024.2.2,60.19588946420017,2024-10-08 13h18.56.376624 -0600,
127,X,1,x,126,126,0,x,1,0.39832429999660235,0.16469999999389984,0,126,126,126,402.1179242000071,,,,,,,,,,402.10515499999747,402.1179242000071,402.1179242000071,402.3158672999998,402.3321203000087,404.1027641999972,x,1,0.39832429999660235,0.16469999999389984,,000004,001,2024-10-08_13h18.36.162,cpt_test,2024.2.2,60.19588946420017,2024-10-08 13h18.56.376624 -0600,
128,N,0,None,127,127,0,None,1,,,0,127,127,127,404.11591880000196,,,,,,,,,,404.10309119999874,404.11591880000196,404.11591880000196,404.3140660000063,404.3304189000046,406.10146820000955,None,1,,,,000004,001,2024-10-08_13h18.36.162,cpt_test,2024.2.2,60.19588946420017,2024-10-08 13h18.56.376624 -0600,
129,Y,0,None,128,128,0,None,1,,,0,128,128,128,406.1123169000057,,,,,,,,,,406.1016543000005,406.1123169000057,406.1123169000057,406.3120496000047,406.3120496000047,408.1163976000098,None,1,,,,000004,001,2024-10-08_13h18.36.162,cpt_test,2024.2.2,60.19588946420017,2024-10-08 13h18.56.376624 -0600,
130,W,0,None,129,129,0,None,1,,,0,129,129,129,408.129480100004,,,,,,,,,,408.11670080000476,408.129480100004,408.129480100004,408.310776600003,408.34379330000957,410.11475570000766,None,1,,,,000004,001,2024-10-08_13h18.36.162,cpt_test,2024.2.2,60.19588946420017,2024-10-08 13h18.56.376624 -0600,
131,L,0,None,130,130,0,None,1,,,0,130,130,130,410.127762300006,,,,,,,,,,410.1150703000021,410.127762300006,410.127762300006,410.30920070000866,410.3422053000104,412.11315150000155,None,1,,,,000004,001,2024-10-08_13h18.36.162,cpt_test,2024.2.2,60.19588946420017,2024-10-08 13h18.56.376624 -0600,
132,F,0,None,131,131,0,None,1,,,0,131,131,131,412.1261125000019,,,,,,,,,,412.1134677000082,412.1261125000019,412.1261125000019,412.3074267000047,412.3403676000016,414.11285730000236,None,1,,,,000004,001,2024-10-08_13h18.36.162,cpt_test,2024.2.2,60.19588946420017,2024-10-08 13h18.56.376624 -0600,
133,E,0,None,132,132,0,None,1,,,0,132,132,132,414.1279401000065,,,,,,,,,,414.11325000000943,414.1279401000065,414.1279401000065,414.31510069999786,414.33158460000413,416.11107480000646,None,1,,,,000004,001,2024-10-08_13h18.36.162,cpt_test,2024.2.2,60.19588946420017,2024-10-08 13h18.56.376624 -0600,
134,L,0,None,133,133,0,None,1,,,0,133,133,133,416.1256655000034,,,,,,,,,,416.1115212000004,416.1256655000034,416.1256655000034,416.3123993000045,416.32903730000544,418.1070766000048,None,1,,,,000004,001,2024-10-08_13h18.36.162,cpt_test,2024.2.2,60.19588946420017,2024-10-08 13h18.56.376624 -0600,
135,K,0,None,134,134,0,None,1,,,0,134,134,134,418.119400399999,,,,,,,,,,418.1073697999964,418.119400399999,418.119400399999,418.3024177000043,418.3189376000082,420.10673379999935,None,1,,,,000004,001,2024-10-08_13h18.36.162,cpt_test,2024.2.2,60.19588946420017,2024-10-08 13h18.56.376624 -0600,
136,Q,0,None,135,135,0,None,1,,,0,135,135,135,420.1198055999994,,,,,,,,,,420.1070614000055,420.1198055999994,420.1198055999994,420.30096030001005,420.3338397000043,422.1052864000085,None,1,,,,000004,001,2024-10-08_13h18.36.162,cpt_test,2024.2.2,60.19588946420017,2024-10-08 13h18.56.376624 -0600,
137,X,1,x,136,136,0,x,1,0.467628499987768,0.18708400000468828,0,136,136,136,422.11833630000183,,,,,,,,,,422.1056009000022,422.11833630000183,422.11833630000183,422.3160820000048,422.33233720000135,424.1035755000048,x,1,0.467628499987768,0.18708400000468828,,000004,001,2024-10-08_13h18.36.162,cpt_test,2024.2.2,60.19588946420017,2024-10-08 13h18.56.376624 -0600,
138,J,0,None,137,137,0,None,1,,,0,137,137,137,424.116537000009,,,,,,,,,,424.10389920001035,424.116537000009,424.116537000009,424.3142246000061,424.33070540000335,426.10278339999786,None,1,,,,000004,001,2024-10-08_13h18.36.162,cpt_test,2024.2.2,60.19588946420017,2024-10-08 13h18.56.376624 -0600,
139,X,1,x,138,138,0,x,1,0.39058469999872614,0.1718817999935709,0,138,138,138,426.11737279999943,,,,,,,,,,426.10317070000747,426.11737279999943,426.11737279999943,426.3127097999968,426.32886910000525,428.1164215000026,x,1,0.39058469999872614,0.1718817999935709,,000004,001,2024-10-08_13h18.36.162,cpt_test,2024.2.2,60.19588946420017,2024-10-08 13h18.56.376624 -0600,
140,E,0,None,139,139,0,None,1,,,0,139,139,139,428.13004119999823,,,,,,,,,,428.11686439999903,428.13004119999823,428.13004119999823,428.31101269999635,428.3448907999991,430.11492310000176,None,1,,,,000004,001,2024-10-08_13h18.36.162,cpt_test,2024.2.2,60.19588946420017,2024-10-08 13h18.56.376624 -0600,
141,T,0,None,140,140,0,None,1,,,0,140,140,140,430.1280320000078,,,,,,,,,,430.1152456999989,430.1280320000078,430.1280320000078,430.30919680000807,430.34237569999823,432.11332570000377,None,1,,,,000004,001,2024-10-08_13h18.36.162,cpt_test,2024.2.2,60.19588946420017,2024-10-08 13h18.56.376624 -0600,
142,X,1,x,141,141,0,x,1,0.39856180000060704,0.1475748999946518,0,141,141,141,432.1264139999985,,,,,,,,,,432.11362380000355,432.1264139999985,432.1264139999985,432.307564600007,432.34058840000944,434.1100377999974,x,1,0.39856180000060704,0.1475748999946518,434.1059976000106,000004,001,2024-10-08_13h18.36.162,cpt_test,2024.2.2,60.19588946420017,2024-10-08 13h18.56.376624 -0600,
143,Q,0,None,142,142,0,None,1,,,0,142,142,142,434.12306090000493,,,,,,,,,,434.11024629999883,434.12306090000493,434.12306090000493,434.30620780000754,434.3223091999971,436.1100082000048,None,1,,,,000004,001,2024-10-08_13h18.36.162,cpt_test,2024.2.2,60.19588946420017,2024-10-08 13h18.56.376624 -0600,
144,V,0,None,143,143,0,None,1,,,0,143,143,143,436.12327399999776,,,,,,,,,,436.11031679999724,436.12327399999776,436.12327399999776,436.30444140000327,436.3372919999965,438.10833699999785,None,1,,,,000004,001,2024-10-08_13h18.36.162,cpt_test,2024.2.2,60.19588946420017,2024-10-08 13h18.56.376624 -0600,
145,Y,0,None,144,144,0,None,1,,,0,144,144,144,438.12149269999645,,,,,,,,,,438.1086420000065,438.12149269999645,438.12149269999645,438.3025129000016,438.33542470000975,440.1063218000054,None,1,,,,000004,001,2024-10-08_13h18.36.162,cpt_test,2024.2.2,60.19588946420017,2024-10-08 13h18.56.376624 -0600,
146,O,0,None,145,145,0,None,1,,,0,145,145,145,440.1193697999988,,,,,,,,,,440.10662669999874,440.1193697999988,440.1193697999988,440.3008434000076,440.3337317999976,442.10494910000125,None,1,,,,000004,001,2024-10-08_13h18.36.162,cpt_test,2024.2.2,60.19588946420017,2024-10-08 13h18.56.376624 -0600,
147,T,0,None,146,146,0,None,1,,,0,146,146,146,442.1177607999998,,,,,,,,,,442.1052716999984,442.1177607999998,442.1177607999998,442.31614930000796,442.33232529999805,444.1036335000099,None,1,,,,000004,001,2024-10-08_13h18.36.162,cpt_test,2024.2.2,60.19588946420017,2024-10-08 13h18.56.376624 -0600,
148,X,1,x,147,147,0,x,1,0.49042370000097435,0.18379719999211375,0,147,147,147,444.1166840000078,,,,,,,,,,444.10395590000553,444.1166840000078,444.1166840000078,444.31454649999796,444.3310097000067,446.1015239999979,x,1,0.49042370000097435,0.18379719999211375,,000004,001,2024-10-08_13h18.36.162,cpt_test,2024.2.2,60.19588946420017,2024-10-08 13h18.56.376624 -0600,
149,T,0,None,148,148,0,None,1,,,0,148,148,148,446.11423459999787,,,,,,,,,,446.101831699998,446.11423459999787,446.11423459999787,446.31501990000834,446.31501990000834,448.116726200009,None,1,,,,000004,001,2024-10-08_13h18.36.162,cpt_test,2024.2.2,60.19588946420017,2024-10-08 13h18.56.376624 -0600,
150,S,0,None,149,149,0,None,1,,,0,149,149,149,448.12965090000944,,,,,,,,,,448.11703190000844,448.12965090000944,448.12965090000944,448.3112076000107,448.34449070000846,450.11519920000865,None,1,,,,000004,001,2024-10-08_13h18.36.162,cpt_test,2024.2.2,60.19588946420017,2024-10-08 13h18.56.376624 -0600,
151,L,0,None,150,150,0,None,1,,,0,150,150,150,450.12772340000083,,,,,,,,,,450.11550840000564,450.12772340000083,450.12772340000083,450.3096521999978,450.3425111000106,452.11379640000814,None,1,,,,000004,001,2024-10-08_13h18.36.162,cpt_test,2024.2.2,60.19588946420017,2024-10-08 13h18.56.376624 -0600,
152,V,0,None,151,151,0,None,1,,,0,151,151,151,452.1268524000043,,,,,,,,,,452.1141112000041,452.1268524000043,452.1268524000043,452.30782600000384,452.3409740000061,454.1130627000093,None,1,,,,000004,001,2024-10-08_13h18.36.162,cpt_test,2024.2.2,60.19588946420017,2024-10-08 13h18.56.376624 -0600,
153,C,0,None,152,152,0,None,1,,,0,152,152,152,454.1275439000019,,,,,,,,,,454.1134557000041,454.1275439000019,454.1275439000019,454.3061818999995,454.339301400003,456.1099577999994,None,1,,,,000004,001,2024-10-08_13h18.36.162,cpt_test,2024.2.2,60.19588946420017,2024-10-08 13h18.56.376624 -0600,
154,U,0,None,153,153,0,None,1,,,0,153,153,153,456.12361840000085,,,,,,,,,,456.1102588000067,456.12361840000085,456.12361840000085,456.30463150001015,456.3374722000008,458.10289439999906,None,1,,,,000004,001,2024-10-08_13h18.36.162,cpt_test,2024.2.2,60.19588946420017,2024-10-08 13h18.56.376624 -0600,
155,X,1,x,154,154,0,x,1,0.5009557000012137,0.19687499999417923,0,154,154,154,458.11990020000667,,,,,,,,,,458.1034365000087,458.11990020000667,458.11990020000667,458.309548899997,458.3255673000094,460.10669519999647,x,1,0.5009557000012137,0.19687499999417923,,000004,001,2024-10-08_13h18.36.162,cpt_test,2024.2.2,60.19588946420017,2024-10-08 13h18.56.376624 -0600,
156,X,1,x,155,155,0,x,1,0.4489978999918094,0.15744000000995584,0,155,155,155,460.11793330000364,,,,,,,,,,460.10700760000327,460.11793330000364,460.11793330000364,460.301315100005,460.31772259999707,462.10505140000896,x,1,0.4489978999918094,0.15744000000995584,,000004,001,2024-10-08_13h18.36.162,cpt_test,2024.2.2,60.19588946420017,2024-10-08 13h18.56.376624 -0600,
157,L,0,None,156,156,0,None,1,,,0,156,156,156,462.11833700000716,,,,,,,,,,462.10536149999825,462.11833700000716,462.11833700000716,462.31627599999774,462.33252920000814,464.1047038000106,None,1,,,,000004,001,2024-10-08_13h18.36.162,cpt_test,2024.2.2,60.19588946420017,2024-10-08 13h18.56.376624 -0600,
158,W,0,None,157,157,0,None,1,,,0,157,157,157,464.11934020000626,,,,,,,,,,464.10507810000854,464.11934020000626,464.11934020000626,464.3146679000056,464.3310368000093,466.10177320000366,None,1,,,,000004,001,2024-10-08_13h18.36.162,cpt_test,2024.2.2,60.19588946420017,2024-10-08 13h18.56.376624 -0600,
159,A,0,None,158,158,0,None,1,,,0,158,158,158,466.11469950000173,,,,,,,,,,466.1020935999986,466.11469950000173,466.11469950000173,466.3137594,466.33042840000417,468.11645880001015,None,1,,,,000004,001,2024-10-08_13h18.36.162,cpt_test,2024.2.2,60.19588946420017,2024-10-08 13h18.56.376624 -0600,
160,X,1,x,159,159,0,x,1,0.4176249000011012,0.1636337999952957,0,159,159,159,468.12906730000395,,,,,,,,,,468.11675560000003,468.12906730000395,468.12906730000395,468.3111177999963,468.34412770000927,470.1151824999979,x,1,0.4176249000011012,0.1636337999952957,,000004,001,2024-10-08_13h18.36.162,cpt_test,2024.2.2,60.19588946420017,2024-10-08 13h18.56.376624 -0600,
161,A,0,None,160,160,0,None,1,,,0,160,160,160,470.12828920000175,,,,,,,,,,470.11557080000057,470.12828920000175,470.12828920000175,470.30958870000904,470.3427064999996,472.11491080000997,None,1,,,,000004,001,2024-10-08_13h18.36.162,cpt_test,2024.2.2,60.19588946420017,2024-10-08 13h18.56.376624 -0600,
162,M,0,None,161,161,0,None,1,,,0,161,161,161,472.12932010000804,,,,,,,,,,472.115309300003,472.12932010000804,472.12932010000804,472.3082466000051,472.3408838000032,474.11511650000466,None,1,,,,000004,001,2024-10-08_13h18.36.162,cpt_test,2024.2.2,60.19588946420017,2024-10-08 13h18.56.376624 -0600,
163,X,1,x,162,162,0,x,1,0.3803444999939529,0.14998720001312904,0,162,162,162,474.12854220000736,,,,,,,,,,474.11548420001054,474.12854220000736,474.12854220000736,474.31002580000495,474.3394798000081,476.1118820999982,x,1,0.3803444999939529,0.14998720001312904,,000004,001,2024-10-08_13h18.36.162,cpt_test,2024.2.2,60.19588946420017,2024-10-08 13h18.56.376624 -0600,
164,X,1,x,163,163,0,x,1,0.4049373000016203,0.15963530000590254,0,163,163,163,476.12145639999653,,,,,,,,,,476.11227979999967,476.12145639999653,476.12145639999653,476.307369400005,476.32398749999993,478.1124605000077,x,1,0.4049373000016203,0.15963530000590254,,000004,001,2024-10-08_13h18.36.162,cpt_test,2024.2.2,60.19588946420017,2024-10-08 13h18.56.376624 -0600,
165,K,0,None,164,164,0,None,1,,,0,164,164,164,478.12682580000546,,,,,,,,,,478.11287870000524,478.12682580000546,478.12682580000546,478.30353950000426,478.3361651000014,480.10815719999664,None,1,,,,000004,001,2024-10-08_13h18.36.162,cpt_test,2024.2.2,60.19588946420017,2024-10-08 13h18.56.376624 -0600,
166,X,1,x,165,165,0,x,1,0.4037584999896353,0.1628091000020504,0,165,165,165,480.1221202000015,,,,,,,,,,480.1085452999978,480.1221202000015,480.1221202000015,480.30156780000834,480.33463720000873,482.10561530000996,x,1,0.4037584999896353,0.1628091000020504,,000004,001,2024-10-08_13h18.36.162,cpt_test,2024.2.2,60.19588946420017,2024-10-08 13h18.56.376624 -0600,
167,M,0,None,166,166,0,None,1,,,0,166,166,166,482.118784300008,,,,,,,,,,482.1059266000084,482.118784300008,482.118784300008,482.3164692999999,482.3329250000097,484.1034631000075,None,1,,,,000004,001,2024-10-08_13h18.36.162,cpt_test,2024.2.2,60.19588946420017,2024-10-08 13h18.56.376624 -0600,
168,X,1,x,167,167,0,x,1,0.380479599989485,0.15890670000226237,0,167,167,167,484.1161903000029,,,,,,,,,,484.1037592000066,484.1161903000029,484.1161903000029,484.3147395999986,484.331256400008,486.1123895000055,x,1,0.380479599989485,0.15890670000226237,,000004,001,2024-10-08_13h18.36.162,cpt_test,2024.2.2,60.19588946420017,2024-10-08 13h18.56.376624 -0600,
169,A,0,None,168,168,0,None,1,,,0,168,168,168,486.12668519999715,,,,,,,,,,486.1127717000054,486.12668519999715,486.12668519999715,486.3132818000013,486.32941800000845,488.114361800006,None,1,,,,000004,001,2024-10-08_13h18.36.162,cpt_test,2024.2.2,60.19588946420017,2024-10-08 13h18.56.376624 -0600,
170,X,1,x,169,169,0,x,1,0.3543593999929726,0.14651170000433922,0,169,169,169,488.1301261000044,,,,,,,,,,488.11491150000074,488.1301261000044,488.1301261000044,488.3115231999982,488.34437730000354,490.11737940000603,x,1,0.3543593999929726,0.14651170000433922,,000004,001,2024-10-08_13h18.36.162,cpt_test,2024.2.2,60.19588946420017,2024-10-08 13h18.56.376624 -0600,
171,L,0,None,170,170,0,None,1,,,0,170,170,170,490.13254069999675,,,,,,,,,,490.1177869000094,490.13254069999675,490.13254069999675,490.3098517000035,490.34272100000817,492.11403090000385,None,1,,,,000004,001,2024-10-08_13h18.36.162,cpt_test,2024.2.2,60.19588946420017,2024-10-08 13h18.56.376624 -0600,
172,E,0,None,171,171,0,None,1,,,0,171,171,171,492.12721910000255,,,,,,,,,,492.11434929999814,492.12721910000255,492.12721910000255,492.3083043000079,492.34124280000106,494.1123219000001,None,1,,,,000004,001,2024-10-08_13h18.36.162,cpt_test,2024.2.2,60.19588946420017,2024-10-08 13h18.56.376624 -0600,
173,T,0,None,172,172,0,None,1,,,0,172,172,172,494.1254256000102,,,,,,,,,,494.11262729999726,494.1254256000102,494.1254256000102,494.30664200001047,494.3394660000049,496.10853959999804,None,1,,,,000004,001,2024-10-08_13h18.36.162,cpt_test,2024.2.2,60.19588946420017,2024-10-08 13h18.56.376624 -0600,
174,F,0,None,173,173,0,None,1,,,0,173,173,173,496.121521699999,,,,,,,,,,496.10875630000373,496.121521699999,496.121521699999,496.30500649999885,496.32124390000536,498.10899049999716,None,1,,,,000004,001,2024-10-08_13h18.36.162,cpt_test,2024.2.2,60.19588946420017,2024-10-08 13h18.56.376624 -0600,
175,M,0,None,174,174,0,None,1,,,0,174,174,174,498.1231237000029,,,,,,,,,,498.1093011000048,498.1231237000029,498.1231237000029,498.30353010000545,498.33619550000003,500.10711759999685,None,1,,,,000004,001,2024-10-08_13h18.36.162,cpt_test,2024.2.2,60.19588946420017,2024-10-08 13h18.56.376624 -0600,
176,Q,0,None,175,175,0,None,1,,,0,175,175,175,500.11982560000615,,,,,,,,,,500.107396300009,500.11982560000615,500.11982560000615,500.301810200006,500.3346595000039,502.1059772000008,None,1,,,,000004,001,2024-10-08_13h18.36.162,cpt_test,2024.2.2,60.19588946420017,2024-10-08 13h18.56.376624 -0600,
177,M,0,None,176,176,0,None,1,,,0,176,176,176,502.1191652999987,,,,,,,,,,502.10627810000733,502.1191652999987,502.1191652999987,502.300164100001,502.3340055000008,504.1043903999962,None,1,,,,000004,001,2024-10-08_13h18.36.162,cpt_test,2024.2.2,60.19588946420017,2024-10-08 13h18.56.376624 -0600,
178,X,1,x,177,177,0,x,1,0.5324677000025986,0.18755410000449046,0,177,177,177,504.1173093999969,,,,,,,,,,504.1047447000019,504.1173093999969,504.1173093999969,504.3149190999975,504.33148940000683,506.10361420000845,x,1,0.5324677000025986,0.18755410000449046,,000004,001,2024-10-08_13h18.36.162,cpt_test,2024.2.2,60.19588946420017,2024-10-08 13h18.56.376624 -0600,
179,V,0,None,178,178,0,None,1,,,0,178,178,178,506.12933239999984,,,,,,,,,,506.10402189999877,506.12933239999984,506.12933239999984,506.3032969000051,506.3375967000029,508.11709749999864,None,1,,,508.11144510000304,000004,001,2024-10-08_13h18.36.162,cpt_test,2024.2.2,60.19588946420017,2024-10-08 13h18.56.376624 -0600,
180,M,0,None,179,179,0,None,1,,,0,179,179,179,508.1300843000063,,,,,,,,,,508.11739880000823,508.1300843000063,508.1300843000063,508.3118688999966,508.3447737000097,510.11378310000873,None,1,,,,000004,001,2024-10-08_13h18.36.162,cpt_test,2024.2.2,60.19588946420017,2024-10-08 13h18.56.376624 -0600,
181,P,0,None,180,180,0,None,1,,,0,180,180,180,510.1269955000025,,,,,,,,,,510.11399430000165,510.1269955000025,510.1269955000025,510.3102155000088,510.32646569999633,512.1143273000052,None,1,,,,000004,001,2024-10-08_13h18.36.162,cpt_test,2024.2.2,60.19588946420017,2024-10-08 13h18.56.376624 -0600,
182,K,0,None,181,181,0,None,1,,,0,181,181,181,512.1269480000046,,,,,,,,,,512.1146520000038,512.1269480000046,512.1269480000046,512.3097051000077,512.3249521999969,514.10483940001,None,1,,,,000004,001,2024-10-08_13h18.36.162,cpt_test,2024.2.2,60.19588946420017,2024-10-08 13h18.56.376624 -0600,
183,V,0,None,182,182,0,None,1,,,0,182,182,182,514.1188413000054,,,,,,,,,,514.1051936000003,514.1188413000054,514.1188413000054,514.3070656000054,514.3230178000085,516.11075420001,None,1,,,,000004,001,2024-10-08_13h18.36.162,cpt_test,2024.2.2,60.19588946420017,2024-10-08 13h18.56.376624 -0600,
184,G,0,None,183,183,0,None,1,,,0,183,183,183,516.1241439000005,,,,,,,,,,516.1111007,516.1241439000005,516.1241439000005,516.3051032000076,516.3382165000075,518.1092304000049,None,1,,,,000004,001,2024-10-08_13h18.36.162,cpt_test,2024.2.2,60.19588946420017,2024-10-08 13h18.56.376624 -0600,
185,L,0,None,184,184,0,None,1,,,0,184,184,184,518.1224948000017,,,,,,,,,,518.1095700000005,518.1224948000017,518.1224948000017,518.303536899999,518.3364643000095,520.1084816000075,None,1,,,,000004,001,2024-10-08_13h18.36.162,cpt_test,2024.2.2,60.19588946420017,2024-10-08 13h18.56.376624 -0600,
186,Q,0,None,185,185,0,None,1,,,0,185,185,185,520.1234967000055,,,,,,,,,,520.1088680000103,520.1234967000055,520.1234967000055,520.3118596999993,520.3260554000008,522.1070078000048,None,1,,,,000004,001,2024-10-08_13h18.36.162,cpt_test,2024.2.2,60.19588946420017,2024-10-08 13h18.56.376624 -0600,
187,N,0,None,186,186,0,None,1,,,0,186,186,186,522.1210761999973,,,,,,,,,,522.1073918000038,522.1210761999973,522.1210761999973,522.30899830001,522.3256726999971,524.1039528999972,None,1,,,,000004,001,2024-10-08_13h18.36.162,cpt_test,2024.2.2,60.19588946420017,2024-10-08 13h18.56.376624 -0600,
188,K,0,None,187,187,0,None,1,,,0,187,187,187,524.1172115000081,,,,,,,,,,524.1042744000006,524.1172115000081,524.1172115000081,524.315798399999,524.3322698999982,526.1035688999982,None,1,,,,000004,001,2024-10-08_13h18.36.162,cpt_test,2024.2.2,60.19588946420017,2024-10-08 13h18.56.376624 -0600,
189,C,0,None,188,188,0,None,1,,,0,188,188,188,526.1179581000033,,,,,,,,,,526.1039481000043,526.1179581000033,526.1179581000033,526.3053310000105,526.3217532999988,528.1175367999967,None,1,,,528.1116909999982,000004,001,2024-10-08_13h18.36.162,cpt_test,2024.2.2,60.19588946420017,2024-10-08 13h18.56.376624 -0600,
190,Z,0,None,189,189,0,None,1,,,0,189,189,189,528.1305304999987,,,,,,,,,,528.1178385000094,528.1305304999987,528.1305304999987,528.3121696000017,528.3456248000002,530.1165334000107,None,1,,,,000004,001,2024-10-08_13h18.36.162,cpt_test,2024.2.2,60.19588946420017,2024-10-08 13h18.56.376624 -0600,
191,I,0,None,190,190,0,None,1,,,0,190,190,190,530.1296939000022,,,,,,,,,,530.1168360000011,530.1296939000022,530.1296939000022,530.3100281000079,530.343348800001,532.1142970000074,None,1,,,,000004,001,2024-10-08_13h18.36.162,cpt_test,2024.2.2,60.19588946420017,2024-10-08 13h18.56.376624 -0600,
192,J,0,None,191,191,0,None,1,,,0,191,191,191,532.1272841000027,,,,,,,,,,532.1146312000055,532.1272841000027,532.1272841000027,532.3086327000055,532.341722600002,534.1125083000079,None,1,,,,000004,001,2024-10-08_13h18.36.162,cpt_test,2024.2.2,60.19588946420017,2024-10-08 13h18.56.376624 -0600,
193,X,1,x,192,192,0,x,1,0.49865569999383297,0.19114100000297185,0,192,192,192,534.1257186000003,,,,,,,,,,534.1128830000089,534.1257186000003,534.1257186000003,534.3068779000023,534.3398916000006,536.1106559000036,x,1,0.49865569999383297,0.19114100000297185,,000004,001,2024-10-08_13h18.36.162,cpt_test,2024.2.2,60.19588946420017,2024-10-08 13h18.56.376624 -0600,
194,E,0,None,193,193,0,None,1,,,0,193,193,193,536.1237561000016,,,,,,,,,,536.1109746000002,536.1237561000016,536.1237561000016,536.3054190999974,536.3384304000065,538.1091398999997,None,1,,,,000004,001,2024-10-08_13h18.36.162,cpt_test,2024.2.2,60.19588946420017,2024-10-08 13h18.56.376624 -0600,
195,X,1,x,194,194,0,x,1,0.47613840000121854,0.19076209999911953,0,194,194,194,538.1223620000092,,,,,,,,,,538.1094362000003,538.1223620000092,538.1223620000092,538.3037643999996,538.3367741999973,540.1078539000009,x,1,0.47613840000121854,0.19076209999911953,,000004,001,2024-10-08_13h18.36.162,cpt_test,2024.2.2,60.19588946420017,2024-10-08 13h18.56.376624 -0600,
196,X,1,x,195,195,0,x,1,0.6062175999977626,0.1959089000010863,0,195,195,195,540.118653700003,,,,,,,,,,540.1081864000007,540.118653700003,540.118653700003,540.302157099999,540.3182873000042,542.1062170000077,x,1,0.6062175999977626,0.1959089000010863,,000004,001,2024-10-08_13h18.36.162,cpt_test,2024.2.2,60.19588946420017,2024-10-08 13h18.56.376624 -0600,
197,O,0,None,196,196,0,None,1,,,0,196,196,196,542.1198001000012,,,,,,,,,,542.1065422000102,542.1198001000012,542.1198001000012,542.3005470000062,542.3334528999985,544.1047109000065,None,1,,,,000004,001,2024-10-08_13h18.36.162,cpt_test,2024.2.2,60.19588946420017,2024-10-08 13h18.56.376624 -0600,
198,X,1,x,197,197,0,x,1,0.41638560000865255,0.195568999988609,0,197,197,197,544.1177452999982,,,,,,,,,,544.1050600000017,544.1177452999982,544.1177452999982,544.3155298000056,544.3316141000105,546.1030296000099,x,1,0.41638560000865255,0.195568999988609,,000004,001,2024-10-08_13h18.36.162,cpt_test,2024.2.2,60.19588946420017,2024-10-08 13h18.56.376624 -0600,
199,T,0,None,198,198,0,None,1,,,0,198,198,198,546.1160184000037,,,,,,,,,,546.1033639000088,546.1160184000037,546.1160184000037,546.3138712000073,546.3299007000023,548.1010954000085,None,1,,,,000004,001,2024-10-08_13h18.36.162,cpt_test,2024.2.2,60.19588946420017,2024-10-08 13h18.56.376624 -0600,
200,X,1,x,199,199,0,x,1,0.40024909999920055,0.19149230000039097,0,199,199,199,548.1141421000066,,,,,,,,,,548.101402500004,548.1141421000066,548.1141421000066,548.3120102999965,548.3283901999966,550.116247900005,x,1,0.40024909999920055,0.19149230000039097,,000004,001,2024-10-08_13h18.36.162,cpt_test,2024.2.2,60.19588946420017,2024-10-08 13h18.56.376624 -0600,
201,L,0,None,200,200,0,x,0,0.42881330000818707,0.13612799999827985,0,200,200,200,550.1294238999981,,,,,,,,,,550.1165904000081,550.1294238999981,550.1294238999981,550.3105560999975,550.3434417000099,552.1146299000102,x,0,0.42881330000818707,0.13612799999827985,,000004,001,2024-10-08_13h18.36.162,cpt_test,2024.2.2,60.19588946420017,2024-10-08 13h18.56.376624 -0600,
