Number,letra,target,correctas,thisN,thisTrialN,thisRepN,respuesta.keys,respuesta.corr,respuesta.rt,respuesta.duration,trials.thisRepN,trials.thisTrialN,trials.thisN,trials.thisIndex,thisRow.t,notes,Ojos_abiertos.started,Abiertos.started,Ojos_abiertos.stopped,Ojos_cerrados.started,Cerrados.started,alert.started,Cerrados.stopped,Ojos_cerrados.stopped,Test.started,prueba.started,respuesta.started,text.started,prueba.stopped,Test.stopped,trials.respuesta.keys,trials.respuesta.corr,trials.respuesta.rt,trials.respuesta.duration,text.stopped,participant,session,date,expName,psychopyVersion,frameRate,expStart,
,,,,,,,,,,,,,,,,,0.008011700003407896,0.01629690000845585,90.0058418999979,,,,,,,,,,,,,,,,,000003,001,2024-10-08_13h05.03.492,cpt_test,2024.2.2,60.244411578547435,2024-10-08 13h05.35.685088 -0600,
,,,,,,,,,,,,,,,,,,,,90.00837009999668,90.0196280000091,150.0160094666683,150.03273489999992,150.10470969999733,,,,,,,,,,,,000003,001,2024-10-08_13h05.03.492,cpt_test,2024.2.2,60.244411578547435,2024-10-08 13h05.35.685088 -0600,
1,A,0,None,0,0,0,None,1,,,0,0,0,0,150.32477350000408,,,,,,,,,,150.147372300009,150.32477350000408,150.32477350000408,150.34021829999983,150.53236320000724,152.1048851000087,None,1,,,,000003,001,2024-10-08_13h05.03.492,cpt_test,2024.2.2,60.244411578547435,2024-10-08 13h05.35.685088 -0600,
2,R,0,None,1,1,0,None,1,,,0,1,1,1,152.13599260000046,,,,,,,,,,152.10530130000552,152.13599260000046,152.13599260000046,152.3144098000048,152.34754840000824,154.10181900000316,None,1,,,,000003,001,2024-10-08_13h05.03.492,cpt_test,2024.2.2,60.244411578547435,2024-10-08 13h05.35.685088 -0600,
3,L,0,None,2,2,0,None,1,,,0,2,2,2,154.13384740000765,,,,,,,,,,154.10213189999922,154.13384740000765,154.13384740000765,154.31265790000907,154.34583940000448,156.1169779000047,None,1,,,,000003,001,2024-10-08_13h05.03.492,cpt_test,2024.2.2,60.244411578547435,2024-10-08 13h05.35.685088 -0600,
4,X,1,x,3,3,0,x,1,0.45285010000225157,0.15316549999988638,0,3,3,3,156.14130830000795,,,,,,,,,,156.11730199999874,156.14130830000795,156.14130830000795,156.31128429999808,156.34405260000494,158.11527260000003,x,1,0.45285010000225157,0.15316549999988638,,000003,001,2024-10-08_13h05.03.492,cpt_test,2024.2.2,60.244411578547435,2024-10-08 13h05.35.685088 -0600,
5,O,0,None,4,4,0,None,1,,,0,4,4,4,158.1459590000013,,,,,,,,,,158.11561520000396,158.1459590000013,158.1459590000013,158.31237559999863,158.35899239999708,160.1136273000011,None,1,,,,000003,001,2024-10-08_13h05.03.492,cpt_test,2024.2.2,60.244411578547435,2024-10-08 13h05.35.685088 -0600,
6,G,0,None,5,5,0,None,1,,,0,5,5,5,160.1437183000089,,,,,,,,,,160.1139409000025,160.1437183000089,160.1437183000089,160.30775859999994,160.3574316000013,162.11174459999893,None,1,,,,000003,001,2024-10-08_13h05.03.492,cpt_test,2024.2.2,60.244411578547435,2024-10-08 13h05.35.685088 -0600,
7,P,0,None,6,6,0,None,1,,,0,6,6,6,162.14196520000405,,,,,,,,,,162.11206810000294,162.14196520000405,162.14196520000405,162.30741750000743,162.3557387000037,164.11148170000524,None,1,,,,000003,001,2024-10-08_13h05.03.492,cpt_test,2024.2.2,60.244411578547435,2024-10-08 13h05.35.685088 -0600,
8,X,1,x,7,7,0,x,1,0.35164110000187065,0.17238929998711683,0,7,7,7,164.12581660000433,,,,,,,,,,164.11190770000394,164.12581660000433,164.12581660000433,164.30453470000066,164.3375112000067,166.10851069999626,x,1,0.35164110000187065,0.17238929998711683,,000003,001,2024-10-08_13h05.03.492,cpt_test,2024.2.2,60.244411578547435,2024-10-08 13h05.35.685088 -0600,
9,X,1,x,8,8,0,x,1,0.38414720000582747,0.14061370000126772,0,8,8,8,166.1198338999966,,,,,,,,,,166.10883650000324,166.1198338999966,166.1198338999966,166.30287179999868,166.31920860000537,168.1071346999961,x,1,0.38414720000582747,0.14061370000126772,,000003,001,2024-10-08_13h05.03.492,cpt_test,2024.2.2,60.244411578547435,2024-10-08 13h05.35.685088 -0600,
10,Z,0,None,9,9,0,None,1,,,0,9,9,9,168.13810999999987,,,,,,,,,,168.10748360000434,168.13810999999987,168.13810999999987,168.30233160000353,168.35098990000552,170.105495900003,None,1,,,,000003,001,2024-10-08_13h05.03.492,cpt_test,2024.2.2,60.244411578547435,2024-10-08 13h05.35.685088 -0600,
11,I,0,None,10,10,0,None,1,,,0,10,10,10,170.1349646000017,,,,,,,,,,170.10582650000288,170.1349646000017,170.1349646000017,170.3161201000039,170.34927659999812,172.10369109999738,None,1,,,,000003,001,2024-10-08_13h05.03.492,cpt_test,2024.2.2,60.244411578547435,2024-10-08 13h05.35.685088 -0600,
12,D,0,None,11,11,0,None,1,,,0,11,11,11,172.13479150000785,,,,,,,,,,172.1040023000096,172.13479150000785,172.13479150000785,172.3146870000055,172.34747590000916,174.10129780000716,None,1,,,,000003,001,2024-10-08_13h05.03.492,cpt_test,2024.2.2,60.244411578547435,2024-10-08 13h05.35.685088 -0600,
13,X,1,x,12,12,0,x,1,0.3137239000061527,0.13103839999530464,0,12,12,12,174.1139203000057,,,,,,,,,,174.10166850000678,174.1139203000057,174.1139203000057,174.31263660000695,174.32900739999604,176.1019188000064,x,1,0.3137239000061527,0.13103839999530464,,000003,001,2024-10-08_13h05.03.492,cpt_test,2024.2.2,60.244411578547435,2024-10-08 13h05.35.685088 -0600,
14,Y,0,None,13,13,0,None,1,,,0,13,13,13,176.13722200000484,,,,,,,,,,176.10234150000906,176.13722200000484,176.13722200000484,176.312743100003,176.34489350000513,178.11555060000683,None,1,,,,000003,001,2024-10-08_13h05.03.492,cpt_test,2024.2.2,60.244411578547435,2024-10-08 13h05.35.685088 -0600,
15,X,1,x,14,14,0,x,1,0.37339439999777824,0.1539550000015879,0,14,14,14,178.12844410000253,,,,,,,,,,178.1158923000039,178.12844410000253,178.12844410000253,178.3095447000087,178.34281309999642,180.11392050000723,x,1,0.37339439999777824,0.1539550000015879,,000003,001,2024-10-08_13h05.03.492,cpt_test,2024.2.2,60.244411578547435,2024-10-08 13h05.35.685088 -0600,
16,X,1,x,15,15,0,x,1,0.40605009999126196,0.16096429999743123,0,15,15,15,180.1248723000026,,,,,,,,,,180.1142400999961,180.1248723000026,180.1248723000026,180.30811230000108,180.3244551000098,182.11208690000058,x,1,0.40605009999126196,0.16096429999743123,,000003,001,2024-10-08_13h05.03.492,cpt_test,2024.2.2,60.244411578547435,2024-10-08 13h05.35.685088 -0600,
17,A,0,None,16,16,0,None,1,,,0,16,16,16,182.12472790000902,,,,,,,,,,182.1124118000007,182.12472790000902,182.12472790000902,182.30626369999663,182.3394951000082,184.1102896000084,None,1,,,,000003,001,2024-10-08_13h05.03.492,cpt_test,2024.2.2,60.244411578547435,2024-10-08 13h05.35.685088 -0600,
18,J,0,None,17,17,0,None,1,,,0,17,17,17,184.13708529999712,,,,,,,,,,184.1106332000054,184.13708529999712,184.13708529999712,184.30476009999984,184.337901100007,186.10856320000312,None,1,,,,000003,001,2024-10-08_13h05.03.492,cpt_test,2024.2.2,60.244411578547435,2024-10-08 13h05.35.685088 -0600,
19,G,0,None,18,18,0,None,1,,,0,18,18,18,186.12130810000235,,,,,,,,,,186.10888200000045,186.12130810000235,186.12130810000235,186.3031181999977,186.33602100001008,188.10684800001036,None,1,,,,000003,001,2024-10-08_13h05.03.492,cpt_test,2024.2.2,60.244411578547435,2024-10-08 13h05.35.685088 -0600,
20,X,1,x,19,19,0,x,1,0.3425392999924952,0.17182200000388548,0,19,19,19,188.11933500001032,,,,,,,,,,188.1071549000044,188.11933500001032,188.11933500001032,188.301633199997,188.3342924000026,190.10511230000702,x,1,0.3425392999924952,0.17182200000388548,,000003,001,2024-10-08_13h05.03.492,cpt_test,2024.2.2,60.244411578547435,2024-10-08 13h05.35.685088 -0600,
21,T,0,None,20,20,0,None,1,,,0,20,20,20,190.13635250000516,,,,,,,,,,190.1054346000019,190.13635250000516,190.13635250000516,190.30111570000008,190.34954760000983,192.10363160000998,None,1,,,,000003,001,2024-10-08_13h05.03.492,cpt_test,2024.2.2,60.244411578547435,2024-10-08 13h05.35.685088 -0600,
22,S,0,None,21,21,0,x,0,0.2906079999957001,0.18575240000791382,0,21,21,21,192.13665400000173,,,,,,,,,,192.10393870000553,192.13665400000173,192.13665400000173,192.29951170001004,192.3480017999973,194.10356940000202,x,0,0.2906079999957001,0.18575240000791382,,000003,001,2024-10-08_13h05.03.492,cpt_test,2024.2.2,60.244411578547435,2024-10-08 13h05.35.685088 -0600,
23,X,1,x,22,22,0,x,1,0.3870582000090508,0.19205589999910444,0,22,22,22,194.11753790000512,,,,,,,,,,194.10397690000536,194.11753790000512,194.11753790000512,194.30440259999887,194.3188766000094,196.1016271999979,x,1,0.3870582000090508,0.19205589999910444,,000003,001,2024-10-08_13h05.03.492,cpt_test,2024.2.2,60.244411578547435,2024-10-08 13h05.35.685088 -0600,
24,S,0,None,23,23,0,None,1,,,0,23,23,23,196.11572020000312,,,,,,,,,,196.1020428000047,196.11572020000312,196.11572020000312,196.30508440000995,196.32192490001034,198.11559390000184,None,1,,,198.10968480000156,000003,001,2024-10-08_13h05.03.492,cpt_test,2024.2.2,60.244411578547435,2024-10-08 13h05.35.685088 -0600,
25,G,0,None,24,24,0,None,1,,,0,24,24,24,198.12840650000726,,,,,,,,,,198.11589810000442,198.12840650000726,198.12840650000726,198.30985060000967,198.34282940000412,200.1150539000082,None,1,,,,000003,001,2024-10-08_13h05.03.492,cpt_test,2024.2.2,60.244411578547435,2024-10-08 13h05.35.685088 -0600,
26,O,0,None,25,25,0,None,1,,,0,25,25,25,200.12948220000544,,,,,,,,,,200.1154566000041,200.12948220000544,200.12948220000544,200.3083207000018,200.34127600000647,202.11241800000425,None,1,,,,000003,001,2024-10-08_13h05.03.492,cpt_test,2024.2.2,60.244411578547435,2024-10-08 13h05.35.685088 -0600,
27,P,0,None,26,26,0,None,1,,,0,26,26,26,202.12504250000347,,,,,,,,,,202.11275080000632,202.12504250000347,202.12504250000347,202.3065837000031,202.33937739999965,204.1105635999993,None,1,,,,000003,001,2024-10-08_13h05.03.492,cpt_test,2024.2.2,60.244411578547435,2024-10-08 13h05.35.685088 -0600,
28,Z,0,None,27,27,0,None,1,,,0,27,27,27,204.12309480000113,,,,,,,,,,204.1108710999979,204.12309480000113,204.12309480000113,204.30481940000027,204.33780249999836,206.11005730000034,None,1,,,,000003,001,2024-10-08_13h05.03.492,cpt_test,2024.2.2,60.244411578547435,2024-10-08 13h05.35.685088 -0600,
29,X,1,x,28,28,0,x,1,0.41376590001164004,0.1583554999961052,0,28,28,28,206.12455030001001,,,,,,,,,,206.11047120000876,206.12455030001001,206.12455030001001,206.30874980000954,206.32336520000536,208.10749439999927,x,1,0.41376590001164004,0.1583554999961052,,000003,001,2024-10-08_13h05.03.492,cpt_test,2024.2.2,60.244411578547435,2024-10-08 13h05.35.685088 -0600,
30,I,0,None,29,29,0,None,1,,,0,29,29,29,208.1201085000066,,,,,,,,,,208.1078159000026,208.1201085000066,208.1201085000066,208.30162530000962,208.3345879999979,210.10546220000833,None,1,,,,000003,001,2024-10-08_13h05.03.492,cpt_test,2024.2.2,60.244411578547435,2024-10-08 13h05.35.685088 -0600,
31,F,0,None,30,30,0,None,1,,,0,30,30,30,210.13991300000635,,,,,,,,,,210.10576800000854,210.13991300000635,210.13991300000635,210.30160150000302,210.3496601000079,212.1040032000019,None,1,,,,000003,001,2024-10-08_13h05.03.492,cpt_test,2024.2.2,60.244411578547435,2024-10-08 13h05.35.685088 -0600,
32,M,0,None,31,31,0,None,1,,,0,31,31,31,212.13895500000217,,,,,,,,,,212.10431059999974,212.13895500000217,212.13895500000217,212.30002010001044,212.34794990000955,214.10252729999775,None,1,,,,000003,001,2024-10-08_13h05.03.492,cpt_test,2024.2.2,60.244411578547435,2024-10-08 13h05.35.685088 -0600,
33,T,0,None,32,32,0,None,1,,,0,32,32,32,214.1154061999987,,,,,,,,,,214.10285409999778,214.1154061999987,214.1154061999987,214.3132246000023,214.3297653000045,216.10594839999976,None,1,,,,000003,001,2024-10-08_13h05.03.492,cpt_test,2024.2.2,60.244411578547435,2024-10-08 13h05.35.685088 -0600,
34,A,0,None,33,33,0,None,1,,,0,33,33,33,216.11895540000114,,,,,,,,,,216.1062540999992,216.11895540000114,216.11895540000114,216.30990970000857,216.32925660000183,218.10863970000355,None,1,,,,000003,001,2024-10-08_13h05.03.492,cpt_test,2024.2.2,60.244411578547435,2024-10-08 13h05.35.685088 -0600,
35,E,0,None,34,34,0,None,1,,,0,34,34,34,218.1388786000025,,,,,,,,,,218.10936719999881,218.1388786000025,218.1388786000025,218.31015210000623,218.34294050000608,220.11424470000202,None,1,,,,000003,001,2024-10-08_13h05.03.492,cpt_test,2024.2.2,60.244411578547435,2024-10-08 13h05.35.685088 -0600,
36,X,1,x,35,35,0,x,1,0.3649124999938067,0.16292770000291057,0,35,35,35,220.12712900000042,,,,,,,,,,220.11458069999935,220.12712900000042,220.12712900000042,220.3095694000076,220.3263064000057,222.11499689999619,x,1,0.3649124999938067,0.16292770000291057,,000003,001,2024-10-08_13h05.03.492,cpt_test,2024.2.2,60.244411578547435,2024-10-08 13h05.35.685088 -0600,
37,A,0,None,36,36,0,None,1,,,0,36,36,36,222.127922700005,,,,,,,,,,222.11540870000317,222.127922700005,222.127922700005,222.3068562999979,222.33985600000597,224.1109593000001,None,1,,,,000003,001,2024-10-08_13h05.03.492,cpt_test,2024.2.2,60.244411578547435,2024-10-08 13h05.35.685088 -0600,
38,S,0,None,37,37,0,None,1,,,0,37,37,37,224.12383440000121,,,,,,,,,,224.111318700001,224.12383440000121,224.12383440000121,224.30500030000985,224.33799990000261,226.10902010000427,None,1,,,,000003,001,2024-10-08_13h05.03.492,cpt_test,2024.2.2,60.244411578547435,2024-10-08 13h05.35.685088 -0600,
39,U,0,None,38,38,0,None,1,,,0,38,38,38,226.1419223999983,,,,,,,,,,226.1093486000027,226.1419223999983,226.1419223999983,226.3057770000014,226.3531049000012,228.10752970000613,None,1,,,,000003,001,2024-10-08_13h05.03.492,cpt_test,2024.2.2,60.244411578547435,2024-10-08 13h05.35.685088 -0600,
40,U,0,None,39,39,0,None,1,,,0,39,39,39,228.1188373000041,,,,,,,,,,228.10786740000185,228.1188373000041,228.1188373000041,228.30196080000314,228.31812630000059,230.10573779999686,None,1,,,,000003,001,2024-10-08_13h05.03.492,cpt_test,2024.2.2,60.244411578547435,2024-10-08 13h05.35.685088 -0600,
41,Q,0,None,40,40,0,None,1,,,0,40,40,40,230.1396889000025,,,,,,,,,,230.1060512999975,230.1396889000025,230.1396889000025,230.3034217000095,230.3498538999993,232.10394260000612,None,1,,,,000003,001,2024-10-08_13h05.03.492,cpt_test,2024.2.2,60.244411578547435,2024-10-08 13h05.35.685088 -0600,
42,E,0,None,41,41,0,None,1,,,0,41,41,41,232.11667980000493,,,,,,,,,,232.1042643999972,232.11667980000493,232.11667980000493,232.31531980000727,232.3315844000026,234.1025124000007,None,1,,,,000003,001,2024-10-08_13h05.03.492,cpt_test,2024.2.2,60.244411578547435,2024-10-08 13h05.35.685088 -0600,
43,B,0,None,42,42,0,None,1,,,0,42,42,42,234.13425470000948,,,,,,,,,,234.1028198999993,234.13425470000948,234.13425470000948,234.2972560000053,234.34660380000423,236.10124620000715,None,1,,,,000003,001,2024-10-08_13h05.03.492,cpt_test,2024.2.2,60.244411578547435,2024-10-08 13h05.35.685088 -0600,
44,O,0,None,43,43,0,None,1,,,0,43,43,43,236.11415720000514,,,,,,,,,,236.1015933000017,236.11415720000514,236.11415720000514,236.31215530000918,236.32828940000036,238.11620460000995,None,1,,,,000003,001,2024-10-08_13h05.03.492,cpt_test,2024.2.2,60.244411578547435,2024-10-08 13h05.35.685088 -0600,
45,E,0,None,44,44,0,None,1,,,0,44,44,44,238.1289504000015,,,,,,,,,,238.11653990000195,238.1289504000015,238.1289504000015,238.31019509999896,238.343426300009,240.1140688000014,None,1,,,,000003,001,2024-10-08_13h05.03.492,cpt_test,2024.2.2,60.244411578547435,2024-10-08 13h05.35.685088 -0600,
46,F,0,None,45,45,0,None,1,,,0,45,45,45,240.1267838000058,,,,,,,,,,240.11438220000127,240.1267838000058,240.1267838000058,240.3086531000008,240.34146360000886,242.11243940000713,None,1,,,,000003,001,2024-10-08_13h05.03.492,cpt_test,2024.2.2,60.244411578547435,2024-10-08 13h05.35.685088 -0600,
47,V,0,None,46,46,0,None,1,,,0,46,46,46,242.14375679999648,,,,,,,,,,242.11275190000015,242.14375679999648,242.14375679999648,242.30679010000313,242.35674909999943,244.1108752,None,1,,,,000003,001,2024-10-08_13h05.03.492,cpt_test,2024.2.2,60.244411578547435,2024-10-08 13h05.35.685088 -0600,
48,X,1,x,47,47,0,x,1,0.40303400000266265,0.18750499999441672,0,47,47,47,244.12363610000466,,,,,,,,,,244.11120110000775,244.12363610000466,244.12363610000466,244.30611990000762,244.32262790000823,246.10927960000117,x,1,0.40303400000266265,0.18750499999441672,,000003,001,2024-10-08_13h05.03.492,cpt_test,2024.2.2,60.244411578547435,2024-10-08 13h05.35.685088 -0600,
49,X,1,x,48,48,0,x,1,0.374554399997578,0.16466270000091754,0,48,48,48,246.12066110000887,,,,,,,,,,246.10964140000578,246.12066110000887,246.12066110000887,246.3038333000004,246.31997179999598,248.1080052000034,x,1,0.374554399997578,0.16466270000091754,,000003,001,2024-10-08_13h05.03.492,cpt_test,2024.2.2,60.244411578547435,2024-10-08 13h05.35.685088 -0600,
50,C,0,None,49,49,0,None,1,,,0,49,49,49,248.138162800009,,,,,,,,,,248.10833679999632,248.138162800009,248.138162800009,248.30193200000213,248.35166880000907,250.10572390000743,None,1,,,,000003,001,2024-10-08_13h05.03.492,cpt_test,2024.2.2,60.244411578547435,2024-10-08 13h05.35.685088 -0600,
51,M,0,None,50,50,0,None,1,,,0,50,50,50,250.11848210000608,,,,,,,,,,250.106031000003,250.11848210000608,250.11848210000608,250.30032270000083,250.3333927000058,252.10402280000562,None,1,,,,000003,001,2024-10-08_13h05.03.492,cpt_test,2024.2.2,60.244411578547435,2024-10-08 13h05.35.685088 -0600,
52,D,0,None,51,51,0,None,1,,,0,51,51,51,252.11671780000324,,,,,,,,,,252.10432880000735,252.11671780000324,252.11671780000324,252.31549500000256,252.33147800000734,254.1024921000062,None,1,,,,000003,001,2024-10-08_13h05.03.492,cpt_test,2024.2.2,60.244411578547435,2024-10-08 13h05.35.685088 -0600,
53,X,1,x,52,52,0,x,1,0.4636532000004081,0.17733019999286626,0,52,52,52,254.11500040000828,,,,,,,,,,254.10280770000827,254.11500040000828,254.11500040000828,254.31357030000072,254.32999369999743,256.10112160000426,x,1,0.4636532000004081,0.17733019999286626,,000003,001,2024-10-08_13h05.03.492,cpt_test,2024.2.2,60.244411578547435,2024-10-08 13h05.35.685088 -0600,
54,K,0,None,53,53,0,None,1,,,0,53,53,53,256.13315940000757,,,,,,,,,,256.1014623000083,256.13315940000757,256.13315940000757,256.31220179999946,256.34497360000387,258.1156572000036,None,1,,,,000003,001,2024-10-08_13h05.03.492,cpt_test,2024.2.2,60.244411578547435,2024-10-08 13h05.35.685088 -0600,
55,X,1,x,54,54,0,x,1,0.4633810999948764,0.16738990000158083,0,54,54,54,258.1283175999997,,,,,,,,,,258.11596819999977,258.1283175999997,258.1283175999997,258.31013549999625,258.34337129999767,260.11465440000757,x,1,0.4633810999948764,0.16738990000158083,,000003,001,2024-10-08_13h05.03.492,cpt_test,2024.2.2,60.244411578547435,2024-10-08 13h05.35.685088 -0600,
56,N,0,None,55,55,0,None,1,,,0,55,55,55,260.14756379999744,,,,,,,,,,260.1149970999977,260.14756379999744,260.14756379999744,260.30889329999627,260.3583176000102,262.11290089999966,None,1,,,,000003,001,2024-10-08_13h05.03.492,cpt_test,2024.2.2,60.244411578547435,2024-10-08 13h05.35.685088 -0600,
57,M,0,None,56,56,0,None,1,,,0,56,56,56,262.1257076000038,,,,,,,,,,262.1132297000004,262.1257076000038,262.1257076000038,262.3072256000014,262.3403735000029,264.1103223999962,None,1,,,,000003,001,2024-10-08_13h05.03.492,cpt_test,2024.2.2,60.244411578547435,2024-10-08 13h05.35.685088 -0600,
58,X,1,x,57,57,0,x,1,0.34806570000364445,0.14942729999893345,0,57,57,57,264.1223339999997,,,,,,,,,,264.1105828,264.1223339999997,264.1223339999997,264.30572990000655,264.3217513999989,266.1091798999987,x,1,0.34806570000364445,0.14942729999893345,,000003,001,2024-10-08_13h05.03.492,cpt_test,2024.2.2,60.244411578547435,2024-10-08 13h05.35.685088 -0600,
59,F,0,None,58,58,0,None,1,,,0,58,58,58,266.12179130000004,,,,,,,,,,266.1095018000051,266.12179130000004,266.12179130000004,266.3039245999971,266.3369068000029,268.107611200001,None,1,,,,000003,001,2024-10-08_13h05.03.492,cpt_test,2024.2.2,60.244411578547435,2024-10-08 13h05.35.685088 -0600,
60,A,0,None,59,59,0,None,1,,,0,59,59,59,268.1203782000084,,,,,,,,,,268.1079619000084,268.1203782000084,268.1203782000084,268.3023688999965,268.3353868999984,270.10605390000273,None,1,,,,000003,001,2024-10-08_13h05.03.492,cpt_test,2024.2.2,60.244411578547435,2024-10-08 13h05.35.685088 -0600,
61,X,1,x,60,60,0,x,1,0.44203410000773147,0.1824142999976175,0,60,60,60,270.1188426000008,,,,,,,,,,270.1063618000044,270.1188426000008,270.1188426000008,270.30083550000563,270.33367890000227,272.1043045999977,x,1,0.44203410000773147,0.1824142999976175,,000003,001,2024-10-08_13h05.03.492,cpt_test,2024.2.2,60.244411578547435,2024-10-08 13h05.35.685088 -0600,
62,V,0,None,61,61,0,None,1,,,0,61,61,61,272.1170848000038,,,,,,,,,,272.10462850000476,272.1170848000038,272.1170848000038,272.31545720000577,272.3316255999962,274.1024107999983,None,1,,,,000003,001,2024-10-08_13h05.03.492,cpt_test,2024.2.2,60.244411578547435,2024-10-08 13h05.35.685088 -0600,
63,U,0,None,62,62,0,None,1,,,0,62,62,62,274.11509910000314,,,,,,,,,,274.10271320000174,274.11509910000314,274.11509910000314,274.31364780000877,274.3301804000075,276.1009667000035,None,1,,,,000003,001,2024-10-08_13h05.03.492,cpt_test,2024.2.2,60.244411578547435,2024-10-08 13h05.35.685088 -0600,
64,M,0,None,63,63,0,None,1,,,0,63,63,63,276.11451680000755,,,,,,,,,,276.10129200000665,276.11451680000755,276.11451680000755,276.31208160000097,276.3284366000007,278.11608780000824,None,1,,,,000003,001,2024-10-08_13h05.03.492,cpt_test,2024.2.2,60.244411578547435,2024-10-08 13h05.35.685088 -0600,
65,X,1,x,64,64,0,x,1,0.3404876999993576,0.14405220000480767,0,64,64,64,278.1292010000034,,,,,,,,,,278.1164235000033,278.1292010000034,278.1292010000034,278.3104189000005,278.34336680000706,280.1145153999969,x,1,0.3404876999993576,0.14405220000480767,,000003,001,2024-10-08_13h05.03.492,cpt_test,2024.2.2,60.244411578547435,2024-10-08 13h05.35.685088 -0600,
66,A,0,None,65,65,0,None,1,,,0,65,65,65,280.12774999999965,,,,,,,,,,280.1148649000097,280.12774999999965,280.12774999999965,280.30920020000485,280.3421159999998,282.11286239999754,None,1,,,,000003,001,2024-10-08_13h05.03.492,cpt_test,2024.2.2,60.244411578547435,2024-10-08 13h05.35.685088 -0600,
67,N,0,None,66,66,0,None,1,,,0,66,66,66,282.12649789999705,,,,,,,,,,282.11345370000345,282.12649789999705,282.12649789999705,282.30764110000746,282.34013300000515,284.11129380000057,None,1,,,,000003,001,2024-10-08_13h05.03.492,cpt_test,2024.2.2,60.244411578547435,2024-10-08 13h05.35.685088 -0600,
68,H,0,None,67,67,0,None,1,,,0,67,67,67,284.145013500005,,,,,,,,,,284.1116017000022,284.145013500005,284.145013500005,284.3075933000073,284.3553025000001,286.1096236000012,None,1,,,,000003,001,2024-10-08_13h05.03.492,cpt_test,2024.2.2,60.244411578547435,2024-10-08 13h05.35.685088 -0600,
69,A,0,None,68,68,0,None,1,,,0,68,68,68,286.12335039999743,,,,,,,,,,286.10993459999736,286.12335039999743,286.12335039999743,286.30408480000915,286.33668659999967,288.1081644000078,None,1,,,,000003,001,2024-10-08_13h05.03.492,cpt_test,2024.2.2,60.244411578547435,2024-10-08 13h05.35.685088 -0600,
70,X,1,x,69,69,0,x,1,0.31970340000407305,0.145522599996184,0,69,69,69,288.1213359999965,,,,,,,,,,288.10847730000387,288.1213359999965,288.1213359999965,288.3024035999988,288.3354606000066,290.10629330000666,x,1,0.31970340000407305,0.145522599996184,,000003,001,2024-10-08_13h05.03.492,cpt_test,2024.2.2,60.244411578547435,2024-10-08 13h05.35.685088 -0600,
71,F,0,None,70,70,0,None,1,,,0,70,70,70,290.11893759999657,,,,,,,,,,290.10663720000593,290.11893759999657,290.11893759999657,290.30057760000636,290.3337884000066,292.1049406000093,None,1,,,,000003,001,2024-10-08_13h05.03.492,cpt_test,2024.2.2,60.244411578547435,2024-10-08 13h05.35.685088 -0600,
72,N,0,None,71,71,0,None,1,,,0,71,71,71,292.11777569999686,,,,,,,,,,292.10526900000696,292.11777569999686,292.11777569999686,292.3156583000091,292.3320842999965,294.10285229999863,None,1,,,,000003,001,2024-10-08_13h05.03.492,cpt_test,2024.2.2,60.244411578547435,2024-10-08 13h05.35.685088 -0600,
73,K,0,None,72,72,0,None,1,,,0,72,72,72,294.11542329999793,,,,,,,,,,294.1031624000025,294.11542329999793,294.11542329999793,294.3141650000034,294.3306341999996,296.1014307000005,None,1,,,,000003,001,2024-10-08_13h05.03.492,cpt_test,2024.2.2,60.244411578547435,2024-10-08 13h05.35.685088 -0600,
74,Y,0,None,73,73,0,None,1,,,0,73,73,73,296.11393629999657,,,,,,,,,,296.1017473999964,296.11393629999657,296.11393629999657,296.3122762999992,296.3286672999966,298.1165414999996,None,1,,,,000003,001,2024-10-08_13h05.03.492,cpt_test,2024.2.2,60.244411578547435,2024-10-08 13h05.35.685088 -0600,
75,Y,0,None,74,74,0,None,1,,,0,74,74,74,298.1275061000051,,,,,,,,,,298.1168558000063,298.1275061000051,298.1275061000051,298.31083640000725,298.3271137999982,300.11527520000527,None,1,,,,000003,001,2024-10-08_13h05.03.492,cpt_test,2024.2.2,60.244411578547435,2024-10-08 13h05.35.685088 -0600,
76,R,0,None,75,75,0,None,1,,,0,75,75,75,300.12823180000123,,,,,,,,,,300.1156057000044,300.12823180000123,300.12823180000123,300.3091063000029,300.34215199999744,302.1132790999982,None,1,,,,000003,001,2024-10-08_13h05.03.492,cpt_test,2024.2.2,60.244411578547435,2024-10-08 13h05.35.685088 -0600,
77,X,1,x,76,76,0,x,1,0.3852989000006346,0.13542039999447297,0,76,76,76,302.12644710000313,,,,,,,,,,302.11358889999974,302.12644710000313,302.12644710000313,302.3075167000061,302.34049740000046,304.1117648000072,x,1,0.3852989000006346,0.13542039999447297,,000003,001,2024-10-08_13h05.03.492,cpt_test,2024.2.2,60.244411578547435,2024-10-08 13h05.35.685088 -0600,
78,R,0,None,77,77,0,None,1,,,0,77,77,77,304.1248857000028,,,,,,,,,,304.11209300000337,304.1248857000028,304.1248857000028,304.3058088999969,304.3390256999992,306.10956240000087,None,1,,,,000003,001,2024-10-08_13h05.03.492,cpt_test,2024.2.2,60.244411578547435,2024-10-08 13h05.35.685088 -0600,
79,F,0,None,78,78,0,None,1,,,0,78,78,78,306.1223520000058,,,,,,,,,,306.10987020000175,306.1223520000058,306.1223520000058,306.30421610000485,306.33732489999966,308.1099979999999,None,1,,,,000003,001,2024-10-08_13h05.03.492,cpt_test,2024.2.2,60.244411578547435,2024-10-08 13h05.35.685088 -0600,
80,K,0,None,79,79,0,None,1,,,0,79,79,79,308.12454699999944,,,,,,,,,,308.1103812000074,308.12454699999944,308.12454699999944,308.3106393000053,308.32511050000903,310.10688020000816,None,1,,,,000003,001,2024-10-08_13h05.03.492,cpt_test,2024.2.2,60.244411578547435,2024-10-08 13h05.35.685088 -0600,
81,O,0,None,80,80,0,None,1,,,0,80,80,80,310.1203397000063,,,,,,,,,,310.1071962999995,310.1203397000063,310.1203397000063,310.30113540000457,310.33402500000375,312.10464279999724,None,1,,,,000003,001,2024-10-08_13h05.03.492,cpt_test,2024.2.2,60.244411578547435,2024-10-08 13h05.35.685088 -0600,
82,F,0,None,81,81,0,None,1,,,0,81,81,81,312.1176657000033,,,,,,,,,,312.1049614000076,312.1176657000033,312.1176657000033,312.3160568000021,312.3322665000014,314.10337250000157,None,1,,,,000003,001,2024-10-08_13h05.03.492,cpt_test,2024.2.2,60.244411578547435,2024-10-08 13h05.35.685088 -0600,
83,F,0,None,82,82,0,None,1,,,0,82,82,82,314.1144159999967,,,,,,,,,,314.1036754000088,314.1144159999967,314.1144159999967,314.31425450000097,314.31425450000097,316.10162830000627,None,1,,,,000003,001,2024-10-08_13h05.03.492,cpt_test,2024.2.2,60.244411578547435,2024-10-08 13h05.35.685088 -0600,
84,W,0,None,83,83,0,None,1,,,0,83,83,83,316.1365235999983,,,,,,,,,,316.1019529000041,316.1365235999983,316.1365235999983,316.3128571999987,316.3456237000064,318.116843900003,None,1,,,,000003,001,2024-10-08_13h05.03.492,cpt_test,2024.2.2,60.244411578547435,2024-10-08 13h05.35.685088 -0600,
85,X,1,x,84,84,0,x,1,0.31145410001045093,0.14827079999668058,0,84,84,84,318.13010490000306,,,,,,,,,,318.11719040000753,318.13010490000306,318.13010490000306,318.3111904999969,318.3441470999969,320.11680650000926,x,1,0.31145410001045093,0.14827079999668058,,000003,001,2024-10-08_13h05.03.492,cpt_test,2024.2.2,60.244411578547435,2024-10-08 13h05.35.685088 -0600,
86,J,0,None,85,85,0,None,1,,,0,85,85,85,320.1319489000016,,,,,,,,,,320.11721870000474,320.1319489000016,320.1319489000016,320.3032324000087,320.3304519000085,322.11318700000993,None,1,,,322.10752130000037,000003,001,2024-10-08_13h05.03.492,cpt_test,2024.2.2,60.244411578547435,2024-10-08 13h05.35.685088 -0600,
87,N,0,None,86,86,0,None,1,,,0,86,86,86,322.1261061999976,,,,,,,,,,322.1134865000058,322.1261061999976,322.1261061999976,322.3079415999964,322.34063970000716,324.11192350000783,None,1,,,,000003,001,2024-10-08_13h05.03.492,cpt_test,2024.2.2,60.244411578547435,2024-10-08 13h05.35.685088 -0600,
88,X,1,x,87,87,0,x,1,0.4007186999951955,0.15669040000648238,0,87,87,87,324.1246245000075,,,,,,,,,,324.11222290000296,324.1246245000075,324.1246245000075,324.3057397000084,324.3389312000072,326.10973360000935,x,1,0.4007186999951955,0.15669040000648238,,000003,001,2024-10-08_13h05.03.492,cpt_test,2024.2.2,60.244411578547435,2024-10-08 13h05.35.685088 -0600,
89,T,0,None,88,88,0,None,1,,,0,88,88,88,326.1222325999988,,,,,,,,,,326.11004690000846,326.1222325999988,326.1222325999988,326.3044960999978,326.3373014999961,328.1087957999989,None,1,,,,000003,001,2024-10-08_13h05.03.492,cpt_test,2024.2.2,60.244411578547435,2024-10-08 13h05.35.685088 -0600,
90,I,0,None,89,89,0,None,1,,,0,89,89,89,328.1211703000008,,,,,,,,,,328.10911730000225,328.1211703000008,328.1211703000008,328.3027250000014,328.3358644999971,330.1067552000022,None,1,,,,000003,001,2024-10-08_13h05.03.492,cpt_test,2024.2.2,60.244411578547435,2024-10-08 13h05.35.685088 -0600,
91,P,0,None,90,90,0,None,1,,,0,90,90,90,330.1197619000013,,,,,,,,,,330.1070580000087,330.1197619000013,330.1197619000013,330.3012610000005,330.33414629999606,332.10539110000536,None,1,,,,000003,001,2024-10-08_13h05.03.492,cpt_test,2024.2.2,60.244411578547435,2024-10-08 13h05.35.685088 -0600,
92,X,1,x,91,91,0,x,1,0.3841331000003265,0.1604459000081988,0,91,91,91,332.11844140000176,,,,,,,,,,332.1056932000065,332.11844140000176,332.11844140000176,332.31710549999843,332.33387570000195,334.1048821000004,x,1,0.3841331000003265,0.1604459000081988,,000003,001,2024-10-08_13h05.03.492,cpt_test,2024.2.2,60.244411578547435,2024-10-08 13h05.35.685088 -0600,
93,B,0,None,92,92,0,None,1,,,0,92,92,92,334.1197086000029,,,,,,,,,,334.1052837000025,334.1197086000029,334.1197086000029,334.30295759999717,334.317504000006,336.10323690000223,None,1,,,,000003,001,2024-10-08_13h05.03.492,cpt_test,2024.2.2,60.244411578547435,2024-10-08 13h05.35.685088 -0600,
94,M,0,None,93,93,0,None,1,,,0,93,93,93,336.1180747000035,,,,,,,,,,336.10362360000727,336.1180747000035,336.1180747000035,336.313118200007,336.3292344000074,338.11699979999685,None,1,,,,000003,001,2024-10-08_13h05.03.492,cpt_test,2024.2.2,60.244411578547435,2024-10-08 13h05.35.685088 -0600,
95,B,0,None,94,94,0,None,1,,,0,94,94,94,338.13023290000274,,,,,,,,,,338.11730880000687,338.13023290000274,338.13023290000274,338.3113023000042,338.344044700003,340.11636670000735,None,1,,,,000003,001,2024-10-08_13h05.03.492,cpt_test,2024.2.2,60.244411578547435,2024-10-08 13h05.35.685088 -0600,
96,I,0,None,95,95,0,None,1,,,0,95,95,95,340.13083480000205,,,,,,,,,,340.11676109999826,340.13083480000205,340.13083480000205,340.3093954000069,340.3426901000057,342.11344430000463,None,1,,,,000003,001,2024-10-08_13h05.03.492,cpt_test,2024.2.2,60.244411578547435,2024-10-08 13h05.35.685088 -0600,
97,X,1,x,96,96,0,x,1,0.3827515000011772,0.15876859999843873,0,96,96,96,342.1271315000049,,,,,,,,,,342.11374890001025,342.1271315000049,342.1271315000049,342.3076971999981,342.3408841000055,344.11193850000564,x,1,0.3827515000011772,0.15876859999843873,,000003,001,2024-10-08_13h05.03.492,cpt_test,2024.2.2,60.244411578547435,2024-10-08 13h05.35.685088 -0600,
98,J,0,None,97,97,0,None,1,,,0,97,97,97,344.1249773000018,,,,,,,,,,344.11226510000415,344.1249773000018,344.1249773000018,344.30610820000584,344.33945149999636,346.11061970000446,None,1,,,,000003,001,2024-10-08_13h05.03.492,cpt_test,2024.2.2,60.244411578547435,2024-10-08 13h05.35.685088 -0600,
99,X,1,x,98,98,0,x,1,0.3549287999921944,0.1460425999975996,0,98,98,98,346.1240708999976,,,,,,,,,,346.1109443000023,346.1240708999976,346.1240708999976,346.3045640000055,346.33771730000444,348.10882459999993,x,1,0.3549287999921944,0.1460425999975996,,000003,001,2024-10-08_13h05.03.492,cpt_test,2024.2.2,60.244411578547435,2024-10-08 13h05.35.685088 -0600,
100,U,0,None,99,99,0,None,1,,,0,99,99,99,348.1223394999979,,,,,,,,,,348.10917690000497,348.1223394999979,348.1223394999979,348.3030570999981,348.3358756000089,350.106812500002,None,1,,,,000003,001,2024-10-08_13h05.03.492,cpt_test,2024.2.2,60.244411578547435,2024-10-08 13h05.35.685088 -0600,
101,D,0,None,100,100,0,None,1,,,0,100,100,100,350.1198574000009,,,,,,,,,,350.10712620000413,350.1198574000009,350.1198574000009,350.3012893999985,350.3342726999981,352.10514440000406,None,1,,,,000003,001,2024-10-08_13h05.03.492,cpt_test,2024.2.2,60.244411578547435,2024-10-08 13h05.35.685088 -0600,
102,X,1,x,101,101,0,x,1,0.3824525999953039,0.13932640000712126,0,101,101,101,352.1182287999982,,,,,,,,,,352.1054542000056,352.1182287999982,352.1182287999982,352.29973379999865,352.33283690000826,354.1066826000024,x,1,0.3824525999953039,0.13932640000712126,354.09938189999957,000003,001,2024-10-08_13h05.03.492,cpt_test,2024.2.2,60.244411578547435,2024-10-08 13h05.35.685088 -0600,
103,X,1,x,102,102,0,x,1,0.5120495999872219,0.15076240000780672,0,102,102,102,354.11611610000546,,,,,,,,,,354.10708400000294,354.11611610000546,354.11611610000546,354.31470889999764,354.3310690000071,356.10207999999693,x,1,0.5120495999872219,0.15076240000780672,,000003,001,2024-10-08_13h05.03.492,cpt_test,2024.2.2,60.244411578547435,2024-10-08 13h05.35.685088 -0600,
104,N,0,None,103,103,0,None,1,,,0,103,103,103,356.1152560000046,,,,,,,,,,356.1024191000033,356.1152560000046,356.1152560000046,356.3130220000021,356.32951049999974,358.1172179999994,None,1,,,,000003,001,2024-10-08_13h05.03.492,cpt_test,2024.2.2,60.244411578547435,2024-10-08 13h05.35.685088 -0600,
105,U,0,None,104,104,0,None,1,,,0,104,104,104,358.1304925000004,,,,,,,,,,358.1175263000041,358.1304925000004,358.1304925000004,358.311386100002,358.3446266000101,360.1156211000052,None,1,,,,000003,001,2024-10-08_13h05.03.492,cpt_test,2024.2.2,60.244411578547435,2024-10-08 13h05.35.685088 -0600,
106,T,0,None,105,105,0,None,1,,,0,105,105,105,360.1285569000029,,,,,,,,,,360.1159175000066,360.1285569000029,360.1285569000029,360.3097057999985,360.3428563000052,362.1137932999991,None,1,,,,000003,001,2024-10-08_13h05.03.492,cpt_test,2024.2.2,60.244411578547435,2024-10-08 13h05.35.685088 -0600,
107,W,0,None,106,106,0,None,1,,,0,106,106,106,362.1263781000016,,,,,,,,,,362.1140943000064,362.1263781000016,362.1263781000016,362.3083462000068,362.3409892000054,364.11220109999704,None,1,,,,000003,001,2024-10-08_13h05.03.492,cpt_test,2024.2.2,60.244411578547435,2024-10-08 13h05.35.685088 -0600,
108,N,0,None,107,107,0,None,1,,,0,107,107,107,364.1254992000031,,,,,,,,,,364.11251810000977,364.1254992000031,364.1254992000031,364.3066026000015,364.3394008000032,366.11061780000455,None,1,,,,000003,001,2024-10-08_13h05.03.492,cpt_test,2024.2.2,60.244411578547435,2024-10-08 13h05.35.685088 -0600,
109,R,0,None,108,108,0,None,1,,,0,108,108,108,366.1237120000005,,,,,,,,,,366.11092560000543,366.1237120000005,366.1237120000005,366.30489630000375,366.3375268000091,368.10825540000224,None,1,,,,000003,001,2024-10-08_13h05.03.492,cpt_test,2024.2.2,60.244411578547435,2024-10-08 13h05.35.685088 -0600,
110,X,1,x,109,109,0,x,1,0.4706854999967618,0.140501600006246,0,109,109,109,368.12084190000314,,,,,,,,,,368.10856170000625,368.12084190000314,368.12084190000314,368.3029303000076,368.33592549999594,370.10724910000863,x,1,0.4706854999967618,0.140501600006246,,000003,001,2024-10-08_13h05.03.492,cpt_test,2024.2.2,60.244411578547435,2024-10-08 13h05.35.685088 -0600,
111,A,0,None,110,110,0,None,1,,,0,110,110,110,370.12046890000056,,,,,,,,,,370.1075622000062,370.12046890000056,370.12046890000056,370.3014882999996,370.33469850000984,372.10596919999807,None,1,,,,000003,001,2024-10-08_13h05.03.492,cpt_test,2024.2.2,60.244411578547435,2024-10-08 13h05.35.685088 -0600,
112,X,1,x,111,111,0,x,1,0.3659841000044253,0.13003450000542216,0,111,111,111,372.1193970000022,,,,,,,,,,372.1063079000014,372.1193970000022,372.1193970000022,372.3000133000023,372.33276459999615,374.1036327000038,x,1,0.3659841000044253,0.13003450000542216,,000003,001,2024-10-08_13h05.03.492,cpt_test,2024.2.2,60.244411578547435,2024-10-08 13h05.35.685088 -0600,
113,G,0,None,112,112,0,None,1,,,0,112,112,112,374.11674520000815,,,,,,,,,,374.1039516000019,374.11674520000815,374.11674520000815,374.31508460000623,374.3313812999986,376.1026465000032,None,1,,,,000003,001,2024-10-08_13h05.03.492,cpt_test,2024.2.2,60.244411578547435,2024-10-08 13h05.35.685088 -0600,
114,O,0,None,113,113,0,None,1,,,0,113,113,113,376.1159827000083,,,,,,,,,,376.10299480000685,376.1159827000083,376.1159827000083,376.3135268000042,376.32953820000694,378.1006735999981,None,1,,,,000003,001,2024-10-08_13h05.03.492,cpt_test,2024.2.2,60.244411578547435,2024-10-08 13h05.35.685088 -0600,
115,U,0,None,114,114,0,None,1,,,0,114,114,114,378.11447909999697,,,,,,,,,,378.1010030000034,378.11447909999697,378.11447909999697,378.31167560000904,378.32805769999686,380.1157979999989,None,1,,,,000003,001,2024-10-08_13h05.03.492,cpt_test,2024.2.2,60.244411578547435,2024-10-08 13h05.35.685088 -0600,
116,X,1,x,115,115,0,x,1,0.44744940000236966,0.15344540000660345,0,115,115,115,380.1290267000004,,,,,,,,,,380.116105299996,380.1290267000004,380.1290267000004,380.3100725999975,380.34286230000725,382.11409139999887,x,1,0.44744940000236966,0.15344540000660345,,000003,001,2024-10-08_13h05.03.492,cpt_test,2024.2.2,60.244411578547435,2024-10-08 13h05.35.685088 -0600,
117,X,1,x,116,116,0,x,1,0.3881399999954738,0.15404960000887513,0,116,116,116,382.1251298999996,,,,,,,,,,382.1144447999977,382.1251298999996,382.1251298999996,382.3083711000072,382.32475250000425,384.1125239999965,x,1,0.3881399999954738,0.15404960000887513,,000003,001,2024-10-08_13h05.03.492,cpt_test,2024.2.2,60.244411578547435,2024-10-08 13h05.35.685088 -0600,
118,C,0,None,117,117,0,None,1,,,0,117,117,117,384.1254506999976,,,,,,,,,,384.1128691000049,384.1254506999976,384.1254506999976,384.3066170000093,384.33978890000435,386.11075049999636,None,1,,,,000003,001,2024-10-08_13h05.03.492,cpt_test,2024.2.2,60.244411578547435,2024-10-08 13h05.35.685088 -0600,
119,A,0,None,118,118,0,None,1,,,0,118,118,118,386.12405150000995,,,,,,,,,,386.11107070000435,386.12405150000995,386.12405150000995,386.3050160999992,386.3379400999984,388.1092783000058,None,1,,,,000003,001,2024-10-08_13h05.03.492,cpt_test,2024.2.2,60.244411578547435,2024-10-08 13h05.35.685088 -0600,
120,X,1,x,119,119,0,x,1,0.342826200008858,0.14575630000035744,0,119,119,119,388.12240420001035,,,,,,,,,,388.1095948000002,388.12240420001035,388.12240420001035,388.3037167000002,388.336281099997,390.10704180000175,x,1,0.342826200008858,0.14575630000035744,,000003,001,2024-10-08_13h05.03.492,cpt_test,2024.2.2,60.244411578547435,2024-10-08 13h05.35.685088 -0600,
121,H,0,None,120,120,0,None,1,,,0,120,120,120,390.12015980000433,,,,,,,,,,390.1073597000068,390.12015980000433,390.12015980000433,390.30170799999905,390.33471769999596,392.10553270000673,None,1,,,,000003,001,2024-10-08_13h05.03.492,cpt_test,2024.2.2,60.244411578547435,2024-10-08 13h05.35.685088 -0600,
122,M,0,None,121,121,0,None,1,,,0,121,121,121,392.1188783999969,,,,,,,,,,392.105833900001,392.1188783999969,392.1188783999969,392.30021050000505,392.33324230001017,394.1039391000086,None,1,,,,000003,001,2024-10-08_13h05.03.492,cpt_test,2024.2.2,60.244411578547435,2024-10-08 13h05.35.685088 -0600,
123,V,0,None,122,122,0,None,1,,,0,122,122,122,394.1169697000005,,,,,,,,,,394.1042419000005,394.1169697000005,394.1169697000005,394.3151705000055,394.3316734999971,396.10244230000535,None,1,,,,000003,001,2024-10-08_13h05.03.492,cpt_test,2024.2.2,60.244411578547435,2024-10-08 13h05.35.685088 -0600,
124,K,0,None,123,123,0,None,1,,,0,123,123,123,396.1154341000074,,,,,,,,,,396.1027527999977,396.1154341000074,396.1154341000074,396.31335409999883,396.32992830000876,398.1015702000004,None,1,,,,000003,001,2024-10-08_13h05.03.492,cpt_test,2024.2.2,60.244411578547435,2024-10-08 13h05.35.685088 -0600,
125,G,0,None,124,124,0,None,1,,,0,124,124,124,398.1147961999959,,,,,,,,,,398.1019002000103,398.1147961999959,398.1147961999959,398.3116231000022,398.32821140000306,400.11591160000535,None,1,,,,000003,001,2024-10-08_13h05.03.492,cpt_test,2024.2.2,60.244411578547435,2024-10-08 13h05.35.685088 -0600,
126,A,0,None,125,125,0,None,1,,,0,125,125,125,400.1296014999971,,,,,,,,,,400.1162273000082,400.1296014999971,400.1296014999971,400.3100559000013,400.3432402000035,402.1142993999965,None,1,,,,000003,001,2024-10-08_13h05.03.492,cpt_test,2024.2.2,60.244411578547435,2024-10-08 13h05.35.685088 -0600,
127,X,1,x,126,126,0,x,1,0.4056177000020398,0.14135989999340381,0,126,126,126,402.1270259000012,,,,,,,,,,402.1146069000097,402.1270259000012,402.1270259000012,402.3086161000101,402.3416193000012,404.1123079999961,x,1,0.4056177000020398,0.14135989999340381,,000003,001,2024-10-08_13h05.03.492,cpt_test,2024.2.2,60.244411578547435,2024-10-08 13h05.35.685088 -0600,
128,N,0,None,127,127,0,None,1,,,0,127,127,127,404.1249222000042,,,,,,,,,,404.1126366999961,404.1249222000042,404.1249222000042,404.30701879999833,404.33974589999707,406.11069270000735,None,1,,,,000003,001,2024-10-08_13h05.03.492,cpt_test,2024.2.2,60.244411578547435,2024-10-08 13h05.35.685088 -0600,
129,Y,0,None,128,128,0,None,1,,,0,128,128,128,406.12394720000157,,,,,,,,,,406.1110125999985,406.12394720000157,406.12394720000157,406.3051131000102,406.3383629000018,408.10928770000464,None,1,,,,000003,001,2024-10-08_13h05.03.492,cpt_test,2024.2.2,60.244411578547435,2024-10-08 13h05.35.685088 -0600,
130,W,0,None,129,129,0,None,1,,,0,129,129,129,408.1227352999995,,,,,,,,,,408.1095967000001,408.1227352999995,408.1227352999995,408.3035086000018,408.33659310000075,410.1077706000069,None,1,,,,000003,001,2024-10-08_13h05.03.492,cpt_test,2024.2.2,60.244411578547435,2024-10-08 13h05.35.685088 -0600,
131,L,0,None,130,130,0,None,1,,,0,130,130,130,410.1209443999978,,,,,,,,,,410.1080981999985,410.1209443999978,410.1209443999978,410.30190990000847,410.33479540000553,412.10585010000796,None,1,,,,000003,001,2024-10-08_13h05.03.492,cpt_test,2024.2.2,60.244411578547435,2024-10-08 13h05.35.685088 -0600,
132,F,0,None,131,131,0,None,1,,,0,131,131,131,412.11915379999846,,,,,,,,,,412.1061904000089,412.11915379999846,412.11915379999846,412.3001932000043,412.33340660000977,414.1039591000008,None,1,,,,000003,001,2024-10-08_13h05.03.492,cpt_test,2024.2.2,60.244411578547435,2024-10-08 13h05.35.685088 -0600,
133,E,0,None,132,132,0,None,1,,,0,132,132,132,414.1171417000005,,,,,,,,,,414.10425899999973,414.1171417000005,414.1171417000005,414.31529389999923,414.33147330000065,416.1030097000039,None,1,,,,000003,001,2024-10-08_13h05.03.492,cpt_test,2024.2.2,60.244411578547435,2024-10-08 13h05.35.685088 -0600,
134,L,0,None,133,133,0,None,1,,,0,133,133,133,416.11603730000206,,,,,,,,,,416.10333730001,416.11603730000206,416.11603730000206,416.31351600000926,416.3302160000021,418.10125289999996,None,1,,,,000003,001,2024-10-08_13h05.03.492,cpt_test,2024.2.2,60.244411578547435,2024-10-08 13h05.35.685088 -0600,
135,K,0,None,134,134,0,None,1,,,0,134,134,134,418.1145305999962,,,,,,,,,,418.1015691000066,418.1145305999962,418.1145305999962,418.3119568999973,418.3282321000006,420.11608610000985,None,1,,,,000003,001,2024-10-08_13h05.03.492,cpt_test,2024.2.2,60.244411578547435,2024-10-08 13h05.35.685088 -0600,
136,Q,0,None,135,135,0,None,1,,,0,135,135,135,420.12962849999894,,,,,,,,,,420.1164124000061,420.12962849999894,420.12962849999894,420.3115006000007,420.34632019999844,422.1145852000045,None,1,,,,000003,001,2024-10-08_13h05.03.492,cpt_test,2024.2.2,60.244411578547435,2024-10-08 13h05.35.685088 -0600,
137,X,1,x,136,136,0,x,1,0.4256415999989258,0.15932029999385122,0,136,136,136,422.12772340000083,,,,,,,,,,422.11490310000954,422.12772340000083,422.12772340000083,422.30849340000714,422.3416961000039,424.11259099999734,x,1,0.4256415999989258,0.15932029999385122,,000003,001,2024-10-08_13h05.03.492,cpt_test,2024.2.2,60.244411578547435,2024-10-08 13h05.35.685088 -0600,
138,J,0,None,137,137,0,None,1,,,0,137,137,137,424.12564700000803,,,,,,,,,,424.1129302000045,424.12564700000803,424.12564700000803,424.3068869999988,424.34013270000287,426.1112479000003,None,1,,,,000003,001,2024-10-08_13h05.03.492,cpt_test,2024.2.2,60.244411578547435,2024-10-08 13h05.35.685088 -0600,
139,X,1,x,138,138,0,x,1,0.414704900002107,0.14543350000167266,0,138,138,138,426.12498150000465,,,,,,,,,,426.11157570000796,426.12498150000465,426.12498150000465,426.3053052000032,426.3385100000014,428.10938629999873,x,1,0.414704900002107,0.14543350000167266,,000003,001,2024-10-08_13h05.03.492,cpt_test,2024.2.2,60.244411578547435,2024-10-08 13h05.35.685088 -0600,
140,E,0,None,139,139,0,None,1,,,0,139,139,139,428.12248700000055,,,,,,,,,,428.10971390000486,428.12248700000055,428.12248700000055,428.30385280000337,428.33663170000364,430.10780710000836,None,1,,,,000003,001,2024-10-08_13h05.03.492,cpt_test,2024.2.2,60.244411578547435,2024-10-08 13h05.35.685088 -0600,
141,T,0,None,140,140,0,None,1,,,0,140,140,140,430.12107500000275,,,,,,,,,,430.10810460000357,430.12107500000275,430.12107500000275,430.30215750000207,430.33514199999627,432.10621510000783,None,1,,,,000003,001,2024-10-08_13h05.03.492,cpt_test,2024.2.2,60.244411578547435,2024-10-08 13h05.35.685088 -0600,
142,X,1,x,141,141,0,x,1,0.3355729000031715,0.13473559998965356,0,141,141,141,432.1194228000095,,,,,,,,,,432.10652780000237,432.1194228000095,432.1194228000095,432.30060820000654,432.3335577999969,434.1049042000086,x,1,0.3355729000031715,0.13473559998965356,,000003,001,2024-10-08_13h05.03.492,cpt_test,2024.2.2,60.244411578547435,2024-10-08 13h05.35.685088 -0600,
143,Q,0,None,142,142,0,None,1,,,0,142,142,142,434.11819079999987,,,,,,,,,,434.1052437000035,434.11819079999987,434.11819079999987,434.31559290000587,434.3317277000024,436.10307310000644,None,1,,,,000003,001,2024-10-08_13h05.03.492,cpt_test,2024.2.2,60.244411578547435,2024-10-08 13h05.35.685088 -0600,
144,V,0,None,143,143,0,None,1,,,0,143,143,143,436.1165184999991,,,,,,,,,,436.10341250000056,436.1165184999991,436.1165184999991,436.3138285000023,436.33027669999865,438.10095230001025,None,1,,,,000003,001,2024-10-08_13h05.03.492,cpt_test,2024.2.2,60.244411578547435,2024-10-08 13h05.35.685088 -0600,
145,Y,0,None,144,144,0,None,1,,,0,144,144,144,438.114124300002,,,,,,,,,,438.1012516000046,438.114124300002,438.114124300002,438.3122143000073,438.3286420000077,440.11616279999726,None,1,,,,000003,001,2024-10-08_13h05.03.492,cpt_test,2024.2.2,60.244411578547435,2024-10-08 13h05.35.685088 -0600,
146,O,0,None,145,145,0,None,1,,,0,145,145,145,440.1293172000005,,,,,,,,,,440.1164759000094,440.1293172000005,440.1293172000005,440.3105724000052,440.34374170000956,442.11446579999756,None,1,,,,000003,001,2024-10-08_13h05.03.492,cpt_test,2024.2.2,60.244411578547435,2024-10-08 13h05.35.685088 -0600,
147,T,0,None,146,146,0,None,1,,,0,146,146,146,442.12795840000035,,,,,,,,,,442.1147823000065,442.12795840000035,442.12795840000035,442.3087986000028,442.3420744000032,444.11308510000526,None,1,,,,000003,001,2024-10-08_13h05.03.492,cpt_test,2024.2.2,60.244411578547435,2024-10-08 13h05.35.685088 -0600,
148,X,1,x,147,147,0,x,1,0.38440139999147505,0.14114700000209268,0,147,147,147,444.1263659999968,,,,,,,,,,444.1133878999972,444.1263659999968,444.1263659999968,444.3071823000064,444.34000599999854,446.11135230000946,x,1,0.38440139999147505,0.14114700000209268,,000003,001,2024-10-08_13h05.03.492,cpt_test,2024.2.2,60.244411578547435,2024-10-08 13h05.35.685088 -0600,
149,T,0,None,148,148,0,None,1,,,0,148,148,148,446.12449980000383,,,,,,,,,,446.1116636000079,446.12449980000383,446.12449980000383,446.30555679999816,446.3384903999977,448.1098396000016,None,1,,,,000003,001,2024-10-08_13h05.03.492,cpt_test,2024.2.2,60.244411578547435,2024-10-08 13h05.35.685088 -0600,
150,S,0,None,149,149,0,None,1,,,0,149,149,149,448.12243590000435,,,,,,,,,,448.1101430999988,448.12243590000435,448.12243590000435,448.30394199999864,448.3368757999997,450.1080024999974,None,1,,,,000003,001,2024-10-08_13h05.03.492,cpt_test,2024.2.2,60.244411578547435,2024-10-08 13h05.35.685088 -0600,
151,L,0,None,150,150,0,None,1,,,0,150,150,150,450.12090049999824,,,,,,,,,,450.1083157999965,450.12090049999824,450.12090049999824,450.3021934999997,450.3351667000097,452.1059784999961,None,1,,,,000003,001,2024-10-08_13h05.03.492,cpt_test,2024.2.2,60.244411578547435,2024-10-08 13h05.35.685088 -0600,
152,V,0,None,151,151,0,None,1,,,0,151,151,151,452.11878530000104,,,,,,,,,,452.10629310000513,452.11878530000104,452.11878530000104,452.3006075000012,452.33378580000135,454.10458970000036,None,1,,,,000003,001,2024-10-08_13h05.03.492,cpt_test,2024.2.2,60.244411578547435,2024-10-08 13h05.35.685088 -0600,
153,C,0,None,152,152,0,None,1,,,0,152,152,152,454.11828200001037,,,,,,,,,,454.1048912999977,454.11828200001037,454.11828200001037,454.31574000000546,454.33215380000183,456.1026092999964,None,1,,,,000003,001,2024-10-08_13h05.03.492,cpt_test,2024.2.2,60.244411578547435,2024-10-08 13h05.35.685088 -0600,
154,U,0,None,153,153,0,None,1,,,0,153,153,153,456.11629620000895,,,,,,,,,,456.1029172999988,456.11629620000895,456.11629620000895,456.3137190999987,456.3302016000089,458.1147353999986,None,1,,,,000003,001,2024-10-08_13h05.03.492,cpt_test,2024.2.2,60.244411578547435,2024-10-08 13h05.35.685088 -0600,
155,X,1,x,154,154,0,x,1,0.4394345000036992,0.1414593999943463,0,154,154,154,458.12871659999655,,,,,,,,,,458.11490200000117,458.12871659999655,458.12871659999655,458.31198500000755,458.3282842000044,460.11508859999594,x,1,0.4394345000036992,0.1414593999943463,,000003,001,2024-10-08_13h05.03.492,cpt_test,2024.2.2,60.244411578547435,2024-10-08 13h05.35.685088 -0600,
156,X,1,x,155,155,0,x,1,0.3843628000031458,0.14106490000267513,0,155,155,155,460.12740620000113,,,,,,,,,,460.1153467999975,460.12740620000113,460.12740620000113,460.3104291000054,460.32667150000634,462.1147995000065,x,1,0.3843628000031458,0.14106490000267513,,000003,001,2024-10-08_13h05.03.492,cpt_test,2024.2.2,60.244411578547435,2024-10-08 13h05.35.685088 -0600,
157,L,0,None,156,156,0,None,1,,,0,156,156,156,462.1279125000001,,,,,,,,,,462.1151816000056,462.1279125000001,462.1279125000001,462.30886140000075,462.3419073999976,464.1129954000062,None,1,,,,000003,001,2024-10-08_13h05.03.492,cpt_test,2024.2.2,60.244411578547435,2024-10-08 13h05.35.685088 -0600,
158,W,0,None,157,157,0,None,1,,,0,157,157,157,464.1262751000031,,,,,,,,,,464.11331680000876,464.1262751000031,464.1262751000031,464.3074861000059,464.3400411000039,466.10974450000504,None,1,,,,000003,001,2024-10-08_13h05.03.492,cpt_test,2024.2.2,60.244411578547435,2024-10-08 13h05.35.685088 -0600,
159,A,0,None,158,158,0,None,1,,,0,158,158,158,466.1223253000062,,,,,,,,,,466.1099863999989,466.1223253000062,466.1223253000062,466.30535190000955,466.32181000000855,468.1092387000099,None,1,,,,000003,001,2024-10-08_13h05.03.492,cpt_test,2024.2.2,60.244411578547435,2024-10-08 13h05.35.685088 -0600,
160,X,1,x,159,159,0,x,1,0.40671470000233967,0.1497075999941444,0,159,159,159,468.1221002000093,,,,,,,,,,468.10954109999875,468.1221002000093,468.1221002000093,468.30386,468.33696100000816,470.1075831000053,x,1,0.40671470000233967,0.1497075999941444,,000003,001,2024-10-08_13h05.03.492,cpt_test,2024.2.2,60.244411578547435,2024-10-08 13h05.35.685088 -0600,
161,A,0,None,160,160,0,None,1,,,0,160,160,160,470.1208919000055,,,,,,,,,,470.1079078000039,470.1208919000055,470.1208919000055,470.30231680000725,470.33508570000413,472.10663940000813,None,1,,,,000003,001,2024-10-08_13h05.03.492,cpt_test,2024.2.2,60.244411578547435,2024-10-08 13h05.35.685088 -0600,
162,M,0,None,161,161,0,None,1,,,0,161,161,161,472.1189222000103,,,,,,,,,,472.10694130000775,472.1189222000103,472.1189222000103,472.3006641000102,472.33379070000956,474.1047677000024,None,1,,,,000003,001,2024-10-08_13h05.03.492,cpt_test,2024.2.2,60.244411578547435,2024-10-08 13h05.35.685088 -0600,
163,X,1,x,162,162,0,x,1,0.4658052000013413,0.15889449999667704,0,162,162,162,474.1178393000009,,,,,,,,,,474.1050753000018,474.1178393000009,474.1178393000009,474.3155037999968,474.33191839999927,476.1033000000025,x,1,0.4658052000013413,0.15889449999667704,,000003,001,2024-10-08_13h05.03.492,cpt_test,2024.2.2,60.244411578547435,2024-10-08 13h05.35.685088 -0600,
164,X,1,x,163,163,0,x,1,0.34366239998780657,0.15800570001010783,0,163,163,163,476.1143013999972,,,,,,,,,,476.1036402000027,476.1143013999972,476.1143013999972,476.3138175000058,476.3138175000058,478.1014181000064,x,1,0.34366239998780657,0.15800570001010783,,000003,001,2024-10-08_13h05.03.492,cpt_test,2024.2.2,60.244411578547435,2024-10-08 13h05.35.685088 -0600,
165,K,0,None,164,164,0,None,1,,,0,164,164,164,478.1143907000078,,,,,,,,,,478.10173419999774,478.1143907000078,478.1143907000078,478.31237020000117,478.3288370000082,480.1161307000002,None,1,,,,000003,001,2024-10-08_13h05.03.492,cpt_test,2024.2.2,60.244411578547435,2024-10-08 13h05.35.685088 -0600,
166,X,1,x,165,165,0,x,1,0.5437133999948855,0.1506367000110913,0,165,165,165,480.12956940000004,,,,,,,,,,480.11642970000685,480.12956940000004,480.12956940000004,480.31114720000187,480.3439814000012,482.11480389999633,x,1,0.5437133999948855,0.1506367000110913,,000003,001,2024-10-08_13h05.03.492,cpt_test,2024.2.2,60.244411578547435,2024-10-08 13h05.35.685088 -0600,
167,M,0,None,166,166,0,None,1,,,0,166,166,166,482.12793810000585,,,,,,,,,,482.1151206000068,482.12793810000585,482.12793810000585,482.3092369000078,482.3421069000033,484.1150544999982,None,1,,,,000003,001,2024-10-08_13h05.03.492,cpt_test,2024.2.2,60.244411578547435,2024-10-08 13h05.35.685088 -0600,
168,X,1,x,167,167,0,x,1,0.35422839999955613,0.1726388999959454,0,167,167,167,484.12962510000216,,,,,,,,,,484.11543679999886,484.12962510000216,484.12962510000216,484.30136740001035,484.33633449999616,486.11375699999917,x,1,0.35422839999955613,0.1726388999959454,486.1059944000008,000003,001,2024-10-08_13h05.03.492,cpt_test,2024.2.2,60.244411578547435,2024-10-08 13h05.35.685088 -0600,
169,A,0,None,168,168,0,None,1,,,0,168,168,168,486.12899379999726,,,,,,,,,,486.11419330000354,486.12899379999726,486.12899379999726,486.31110200000694,486.34132500000123,488.1095776000002,None,1,,,,000003,001,2024-10-08_13h05.03.492,cpt_test,2024.2.2,60.244411578547435,2024-10-08 13h05.35.685088 -0600,
170,X,1,x,169,169,0,x,1,0.3188765000086278,0.1362920999963535,0,169,169,169,488.12279750000744,,,,,,,,,,488.1098828000104,488.12279750000744,488.12279750000744,488.3044125000015,488.3372187000059,490.1086409999989,x,1,0.3188765000086278,0.1362920999963535,,000003,001,2024-10-08_13h05.03.492,cpt_test,2024.2.2,60.244411578547435,2024-10-08 13h05.35.685088 -0600,
171,L,0,None,170,170,0,None,1,,,0,170,170,170,490.1214675000083,,,,,,,,,,490.10897220000334,490.1214675000083,490.1214675000083,490.3024957000016,490.33552809999674,492.1064097000053,None,1,,,,000003,001,2024-10-08_13h05.03.492,cpt_test,2024.2.2,60.244411578547435,2024-10-08 13h05.35.685088 -0600,
172,E,0,None,171,171,0,None,1,,,0,171,171,171,492.11945730001025,,,,,,,,,,492.1067133000033,492.11945730001025,492.11945730001025,492.30093090000446,492.3339653000003,494.1051693000045,None,1,,,,000003,001,2024-10-08_13h05.03.492,cpt_test,2024.2.2,60.244411578547435,2024-10-08 13h05.35.685088 -0600,
173,T,0,None,172,172,0,None,1,,,0,172,172,172,494.11837120000564,,,,,,,,,,494.10549070000707,494.11837120000564,494.11837120000564,494.299500100009,494.33236460000626,496.1034260000015,None,1,,,,000003,001,2024-10-08_13h05.03.492,cpt_test,2024.2.2,60.244411578547435,2024-10-08 13h05.35.685088 -0600,
174,F,0,None,173,173,0,None,1,,,0,173,173,173,496.11796190000314,,,,,,,,,,496.10374109999975,496.11796190000314,496.11796190000314,496.31429070000013,496.33086780000303,498.10208219999913,None,1,,,,000003,001,2024-10-08_13h05.03.492,cpt_test,2024.2.2,60.244411578547435,2024-10-08 13h05.35.685088 -0600,
175,M,0,None,174,174,0,None,1,,,0,174,174,174,498.1153311000089,,,,,,,,,,498.10239329999604,498.1153311000089,498.1153311000089,498.312731900005,498.32910950000223,500.11668580000696,None,1,,,,000003,001,2024-10-08_13h05.03.492,cpt_test,2024.2.2,60.244411578547435,2024-10-08 13h05.35.685088 -0600,
176,Q,0,None,175,175,0,None,1,,,0,175,175,175,500.129904100002,,,,,,,,,,500.1169823000091,500.129904100002,500.129904100002,500.31126020000374,500.3439817000035,502.11528440000257,None,1,,,,000003,001,2024-10-08_13h05.03.492,cpt_test,2024.2.2,60.244411578547435,2024-10-08 13h05.35.685088 -0600,
177,M,0,None,176,176,0,None,1,,,0,176,176,176,502.1284613000025,,,,,,,,,,502.1156117000064,502.1284613000025,502.1284613000025,502.3093502999982,502.34251159999985,504.11352250000346,None,1,,,,000003,001,2024-10-08_13h05.03.492,cpt_test,2024.2.2,60.244411578547435,2024-10-08 13h05.35.685088 -0600,
178,X,1,x,177,177,0,x,1,0.3356503000104567,0.13527279999107122,0,177,177,177,504.12683639999887,,,,,,,,,,504.1138285000052,504.12683639999887,504.12683639999887,504.30820480000693,504.3405599999969,506.11177479999606,x,1,0.3356503000104567,0.13527279999107122,,000003,001,2024-10-08_13h05.03.492,cpt_test,2024.2.2,60.244411578547435,2024-10-08 13h05.35.685088 -0600,
179,V,0,None,178,178,0,None,1,,,0,178,178,178,506.12488000000303,,,,,,,,,,506.1120949000033,506.12488000000303,506.12488000000303,506.3059939000086,506.3391568000079,508.1116922000074,None,1,,,,000003,001,2024-10-08_13h05.03.492,cpt_test,2024.2.2,60.244411578547435,2024-10-08 13h05.35.685088 -0600,
180,M,0,None,179,179,0,None,1,,,0,179,179,179,508.12608159999945,,,,,,,,,,508.11208059999626,508.12608159999945,508.12608159999945,508.31506930000614,508.332888600009,510.1090938999987,None,1,,,,000003,001,2024-10-08_13h05.03.492,cpt_test,2024.2.2,60.244411578547435,2024-10-08 13h05.35.685088 -0600,
181,P,0,None,180,180,0,None,1,,,0,180,180,180,510.123462500007,,,,,,,,,,510.1094421000016,510.123462500007,510.123462500007,510.3053426999977,510.3391468000045,512.1097427000059,None,1,,,,000003,001,2024-10-08_13h05.03.492,cpt_test,2024.2.2,60.244411578547435,2024-10-08 13h05.35.685088 -0600,
182,K,0,None,181,181,0,None,1,,,0,181,181,181,512.123929399997,,,,,,,,,,512.1101433000003,512.123929399997,512.123929399997,512.3022745000053,512.33417680001,514.1052761000028,None,1,,,,000003,001,2024-10-08_13h05.03.492,cpt_test,2024.2.2,60.244411578547435,2024-10-08 13h05.35.685088 -0600,
183,V,0,None,182,182,0,None,1,,,0,182,182,182,514.1183600000077,,,,,,,,,,514.1055758000002,514.1183600000077,514.1183600000077,514.3163161999983,514.3324633000011,516.1034205000033,None,1,,,,000003,001,2024-10-08_13h05.03.492,cpt_test,2024.2.2,60.244411578547435,2024-10-08 13h05.35.685088 -0600,
184,G,0,None,183,183,0,None,1,,,0,183,183,183,516.116591900005,,,,,,,,,,516.1037193000084,516.116591900005,516.116591900005,516.3146420999983,516.3309625999973,518.1021081000072,None,1,,,,000003,001,2024-10-08_13h05.03.492,cpt_test,2024.2.2,60.244411578547435,2024-10-08 13h05.35.685088 -0600,
185,L,0,None,184,184,0,None,1,,,0,184,184,184,518.1155140000046,,,,,,,,,,518.1024241999985,518.1155140000046,518.1155140000046,518.3128221000079,518.3293775000056,520.1168162000104,None,1,,,,000003,001,2024-10-08_13h05.03.492,cpt_test,2024.2.2,60.244411578547435,2024-10-08 13h05.35.685088 -0600,
186,Q,0,None,185,185,0,None,1,,,0,185,185,185,520.1305365000007,,,,,,,,,,520.1171324000024,520.1305365000007,520.1305365000007,520.3112544000032,520.3442445999972,522.1155151999992,None,1,,,,000003,001,2024-10-08_13h05.03.492,cpt_test,2024.2.2,60.244411578547435,2024-10-08 13h05.35.685088 -0600,
187,N,0,None,186,186,0,None,1,,,0,186,186,186,522.1287359999988,,,,,,,,,,522.1158439999999,522.1287359999988,522.1287359999988,522.3097097999998,522.3424971000059,524.1133553999971,None,1,,,,000003,001,2024-10-08_13h05.03.492,cpt_test,2024.2.2,60.244411578547435,2024-10-08 13h05.35.685088 -0600,
188,K,0,None,187,187,0,None,1,,,0,187,187,187,524.1263032999996,,,,,,,,,,524.11365140001,524.1263032999996,524.1263032999996,524.3078894000064,524.3410792000068,526.113891800007,None,1,,,,000003,001,2024-10-08_13h05.03.492,cpt_test,2024.2.2,60.244411578547435,2024-10-08 13h05.35.685088 -0600,
189,C,0,None,188,188,0,None,1,,,0,188,188,188,526.1287731000048,,,,,,,,,,526.1142662000057,526.1287731000048,526.1287731000048,526.3015313000069,526.336332699997,528.1100924000057,None,1,,,528.1044155999989,000003,001,2024-10-08_13h05.03.492,cpt_test,2024.2.2,60.244411578547435,2024-10-08 13h05.35.685088 -0600,
190,Z,0,None,189,189,0,None,1,,,0,189,189,189,528.1231951000082,,,,,,,,,,528.1103844000027,528.1231951000082,528.1231951000082,528.3048387000017,528.3375187000056,530.1102472000057,None,1,,,,000003,001,2024-10-08_13h05.03.492,cpt_test,2024.2.2,60.244411578547435,2024-10-08 13h05.35.685088 -0600,
191,I,0,None,190,190,0,None,1,,,0,190,190,190,530.1246692999994,,,,,,,,,,530.1106471000094,530.1246692999994,530.1246692999994,530.3042671000003,530.3360915000085,532.1073769000068,None,1,,,,000003,001,2024-10-08_13h05.03.492,cpt_test,2024.2.2,60.244411578547435,2024-10-08 13h05.35.685088 -0600,
192,J,0,None,191,191,0,None,1,,,0,191,191,191,532.1206051000045,,,,,,,,,,532.1076960000064,532.1206051000045,532.1206051000045,532.3013341000042,532.3344883999962,534.1051093999995,None,1,,,,000003,001,2024-10-08_13h05.03.492,cpt_test,2024.2.2,60.244411578547435,2024-10-08 13h05.35.685088 -0600,
193,X,1,x,192,192,0,x,1,0.32683480001287535,0.1117962999996962,0,192,192,192,534.1179207000096,,,,,,,,,,534.1054102000053,534.1179207000096,534.1179207000096,534.2999259000062,534.3328454000002,536.1044268999976,x,1,0.32683480001287535,0.1117962999996962,,000003,001,2024-10-08_13h05.03.492,cpt_test,2024.2.2,60.244411578547435,2024-10-08 13h05.35.685088 -0600,
194,E,0,None,193,193,0,None,1,,,0,193,193,193,536.1176510000078,,,,,,,,,,536.1047586000059,536.1176510000078,536.1176510000078,536.3158512000082,536.3327451000077,538.1024305000028,None,1,,,,000003,001,2024-10-08_13h05.03.492,cpt_test,2024.2.2,60.244411578547435,2024-10-08 13h05.35.685088 -0600,
195,X,1,x,194,194,0,x,1,0.4724438000121154,0.1671864999952959,0,194,194,194,538.1157473000058,,,,,,,,,,538.1027603999974,538.1157473000058,538.1157473000058,538.3131020000001,538.3293209999974,540.1037319000025,x,1,0.4724438000121154,0.1671864999952959,,000003,001,2024-10-08_13h05.03.492,cpt_test,2024.2.2,60.244411578547435,2024-10-08 13h05.35.685088 -0600,
196,X,1,x,195,195,0,x,1,0.37942610000027344,0.17297830000461545,0,195,195,195,540.1134366000042,,,,,,,,,,540.104129600004,540.1134366000042,540.1134366000042,540.3115524000023,540.3115524000023,542.116847199999,x,1,0.37942610000027344,0.17297830000461545,,000003,001,2024-10-08_13h05.03.492,cpt_test,2024.2.2,60.244411578547435,2024-10-08 13h05.35.685088 -0600,
197,O,0,None,196,196,0,None,1,,,0,196,196,196,542.1315546999977,,,,,,,,,,542.1172428999998,542.1315546999977,542.1315546999977,542.303676800002,542.3386330000067,544.1134187999996,None,1,,,544.107831900008,000003,001,2024-10-08_13h05.03.492,cpt_test,2024.2.2,60.244411578547435,2024-10-08 13h05.35.685088 -0600,
198,X,1,x,197,197,0,x,1,0.3674765000032494,0.14968819999194238,0,197,197,197,544.126264400009,,,,,,,,,,544.1137196000054,544.126264400009,544.126264400009,544.3083436000015,544.3414145999996,546.1124221000064,x,1,0.3674765000032494,0.14968819999194238,,000003,001,2024-10-08_13h05.03.492,cpt_test,2024.2.2,60.244411578547435,2024-10-08 13h05.35.685088 -0600,
199,T,0,None,198,198,0,None,1,,,0,198,198,198,546.1255805999972,,,,,,,,,,546.1127498999995,546.1255805999972,546.1255805999972,546.3064704999997,546.339661200007,548.1144227000041,None,1,,,,000003,001,2024-10-08_13h05.03.492,cpt_test,2024.2.2,60.244411578547435,2024-10-08 13h05.35.685088 -0600,
200,X,1,x,199,199,0,x,1,0.3734351000020979,0.1723104999982752,0,199,199,199,548.133510300002,,,,,,,,,,548.1150075000041,548.133510300002,548.133510300002,548.3054602000047,548.3377805000055,550.1091099000041,x,1,0.3734351000020979,0.1723104999982752,,000003,001,2024-10-08_13h05.03.492,cpt_test,2024.2.2,60.244411578547435,2024-10-08 13h05.35.685088 -0600,
201,L,0,None,200,200,0,None,1,,,0,200,200,200,550.1221553000069,,,,,,,,,,550.1094383000018,550.1221553000069,550.1221553000069,550.3030677000061,550.3363357000053,552.107078400004,None,1,,,,000003,001,2024-10-08_13h05.03.492,cpt_test,2024.2.2,60.244411578547435,2024-10-08 13h05.35.685088 -0600,
